t_ms,ax,ay,az,gx,gy,gz
72658,-0.025390625,-0.0645751953125,0.98486328125,1.89208984375,2.0751953125,2.86865234375
72667,-0.0322265625,-0.070068359375,0.98974609375,2.25830078125,1.953125,2.8076171875
72675,-0.029052734375,-0.0701904296875,0.9984130859375,1.953125,2.50244140625,2.86865234375
72684,-0.023681640625,-0.0628662109375,1.00048828125,1.3427734375,2.685546875,2.9296875
72692,-0.0286865234375,-0.064697265625,0.9984130859375,1.89208984375,2.01416015625,2.86865234375
72700,-0.0313720703125,-0.07275390625,0.999267578125,2.44140625,1.77001953125,2.86865234375
72709,-0.0303955078125,-0.0648193359375,0.9886474609375,2.01416015625,2.01416015625,2.86865234375
72718,-0.0279541015625,-0.06201171875,0.9906005859375,1.708984375,2.197265625,2.8076171875
72728,-0.0303955078125,-0.0665283203125,0.99951171875,2.01416015625,2.3193359375,2.86865234375
72735,-0.0294189453125,-0.067626953125,1.00048828125,1.77001953125,2.3193359375,2.8076171875
72744,-0.028076171875,-0.0648193359375,0.99609375,1.77001953125,2.25830078125,2.8076171875
72752,-0.03125,-0.0687255859375,0.99658203125,2.197265625,1.953125,2.8076171875
72760,-0.03125,-0.0687255859375,0.9935302734375,2.13623046875,2.0751953125,2.8076171875
72769,-0.0302734375,-0.0631103515625,0.990478515625,1.8310546875,2.25830078125,2.86865234375
72778,-0.029541015625,-0.0673828125,0.997802734375,1.953125,2.25830078125,2.9296875
72786,-0.030029296875,-0.0667724609375,1.0003662109375,1.89208984375,2.25830078125,2.8076171875
72795,-0.0272216796875,-0.0626220703125,0.9974365234375,1.52587890625,2.38037109375,2.9296875
72803,-0.027099609375,-0.06396484375,0.9942626953125,2.01416015625,2.197265625,2.86865234375
72812,-0.0302734375,-0.0684814453125,0.992919921875,2.38037109375,1.77001953125,2.8076171875
72820,-0.030029296875,-0.0677490234375,0.9940185546875,2.3193359375,2.0751953125,2.86865234375
72829,-0.0286865234375,-0.06640625,0.998291015625,1.89208984375,2.50244140625,2.86865234375
72837,-0.030029296875,-0.066650390625,1.00048828125,1.953125,2.50244140625,2.86865234375
72846,-0.030029296875,-0.066650390625,0.99755859375,1.953125,2.25830078125,2.86865234375
72856,-0.030517578125,-0.0673828125,0.992919921875,2.0751953125,2.01416015625,2.9296875
72863,-0.030029296875,-0.0665283203125,0.99462890625,2.0751953125,1.953125,2.8076171875
72872,-0.0281982421875,-0.0655517578125,0.9964599609375,1.953125,2.38037109375,2.9296875
72880,-0.0302734375,-0.064208984375,0.999267578125,1.8310546875,2.197265625,3.11279296875
72889,-0.02734375,-0.0682373046875,1.0001220703125,1.8310546875,2.38037109375,2.99072265625
72897,-0.030517578125,-0.064208984375,0.99365234375,2.0751953125,2.197265625,2.8076171875
72906,-0.029052734375,-0.0675048828125,0.9932861328125,2.38037109375,2.01416015625,2.8076171875
72914,-0.0299072265625,-0.066162109375,0.992919921875,2.25830078125,2.13623046875,2.8076171875
72923,-0.0284423828125,-0.0657958984375,0.996826171875,1.8310546875,2.25830078125,2.9296875
72931,-0.0283203125,-0.0657958984375,0.9991455078125,1.8310546875,2.44140625,2.86865234375
72940,-0.0299072265625,-0.068359375,0.9986572265625,2.01416015625,2.13623046875,2.86865234375
72948,-0.0289306640625,-0.068603515625,0.9945068359375,2.01416015625,2.197265625,2.86865234375
72957,-0.0291748046875,-0.0673828125,0.99267578125,2.0751953125,1.953125,2.86865234375
72965,-0.0311279296875,-0.0679931640625,0.995361328125,2.25830078125,2.0751953125,3.0517578125
72974,-0.029541015625,-0.0672607421875,0.9970703125,1.953125,2.44140625,2.9296875
72984,-0.029296875,-0.064697265625,0.998779296875,1.8310546875,2.50244140625,3.0517578125
72991,-0.0284423828125,-0.06640625,0.9967041015625,1.953125,2.3193359375,2.8076171875
73000,-0.02734375,-0.06396484375,0.994384765625,2.0751953125,2.197265625,2.8076171875
73008,-0.0262451171875,-0.0625,0.9920654296875,2.25830078125,2.0751953125,2.99072265625
73017,-0.0281982421875,-0.064697265625,0.994384765625,2.0751953125,2.25830078125,2.99072265625
73025,-0.0301513671875,-0.0675048828125,0.9981689453125,2.0751953125,2.3193359375,2.8076171875
73034,-0.0303955078125,-0.069580078125,0.99951171875,2.0751953125,2.38037109375,2.86865234375
73042,-0.0313720703125,-0.068359375,0.9970703125,2.01416015625,2.38037109375,2.9296875
73051,-0.02978515625,-0.0689697265625,0.997314453125,2.25830078125,2.25830078125,3.11279296875
73059,-0.0294189453125,-0.06640625,0.99267578125,2.197265625,2.13623046875,3.173828125
73068,-0.0281982421875,-0.067138671875,0.99267578125,1.89208984375,2.197265625,3.0517578125
73076,-0.0311279296875,-0.069580078125,0.999755859375,1.953125,2.197265625,2.9296875
73085,-0.0260009765625,-0.06396484375,0.9986572265625,1.5869140625,2.5634765625,2.99072265625
73093,-0.02685546875,-0.0592041015625,0.9952392578125,1.64794921875,2.25830078125,2.99072265625
73102,-0.02880859375,-0.0648193359375,0.9937744140625,2.197265625,1.89208984375,2.99072265625
73112,-0.030517578125,-0.0667724609375,0.9931640625,2.25830078125,1.953125,2.9296875
73119,-0.0311279296875,-0.0667724609375,0.996337890625,1.89208984375,2.25830078125,2.99072265625
73128,-0.0302734375,-0.0694580078125,1.0006103515625,1.8310546875,2.38037109375,2.86865234375
73136,-0.030517578125,-0.0670166015625,1.0003662109375,1.89208984375,2.13623046875,2.9296875
73145,-0.0296630859375,-0.0655517578125,0.9954833984375,1.89208984375,2.01416015625,3.0517578125
73153,-0.0302734375,-0.0660400390625,0.991455078125,2.197265625,2.0751953125,2.86865234375
73162,-0.0306396484375,-0.0673828125,0.9949951171875,2.197265625,2.0751953125,2.9296875
73170,-0.02783203125,-0.0640869140625,0.99658203125,1.8310546875,2.3193359375,2.8076171875
73179,-0.028076171875,-0.0631103515625,0.9996337890625,1.5869140625,2.197265625,2.74658203125
73187,-0.0274658203125,-0.06494140625,0.9969482421875,1.89208984375,2.13623046875,2.86865234375
73196,-0.027587890625,-0.0645751953125,0.9931640625,2.197265625,1.89208984375,2.8076171875
73205,-0.0302734375,-0.0692138671875,0.992919921875,2.13623046875,2.01416015625,2.86865234375
73213,-0.029052734375,-0.0711669921875,0.998046875,1.953125,2.197265625,2.86865234375
73222,-0.02978515625,-0.0679931640625,0.9993896484375,1.64794921875,2.197265625,2.74658203125
73231,-0.02880859375,-0.0679931640625,1.000244140625,1.5869140625,2.01416015625,2.8076171875
73240,-0.0283203125,-0.0657958984375,0.9964599609375,1.89208984375,2.0751953125,2.86865234375
73247,-0.0294189453125,-0.0634765625,0.9920654296875,2.0751953125,2.01416015625,2.74658203125
73256,-0.0283203125,-0.0657958984375,0.9931640625,2.13623046875,1.89208984375,2.685546875
73264,-0.0296630859375,-0.0662841796875,0.99560546875,1.89208984375,2.13623046875,2.8076171875
73273,-0.0279541015625,-0.0655517578125,0.999755859375,1.77001953125,2.3193359375,2.8076171875
73282,-0.02783203125,-0.06494140625,0.9976806640625,1.77001953125,2.3193359375,2.8076171875
73290,-0.0301513671875,-0.0665283203125,0.9935302734375,1.953125,2.01416015625,2.685546875
73299,-0.03076171875,-0.069091796875,0.9918212890625,2.197265625,1.8310546875,2.86865234375
73307,-0.03173828125,-0.06884765625,0.9954833984375,2.0751953125,1.953125,2.86865234375
73316,-0.030029296875,-0.067626953125,0.9998779296875,1.77001953125,2.197265625,2.8076171875
73324,-0.027587890625,-0.06298828125,0.9998779296875,1.5869140625,2.197265625,2.8076171875
73333,-0.0279541015625,-0.06201171875,0.99462890625,2.0751953125,2.3193359375,2.86865234375
73341,-0.02880859375,-0.065673828125,0.991943359375,2.25830078125,2.13623046875,2.86865234375
73350,-0.02978515625,-0.0670166015625,0.99169921875,2.13623046875,2.01416015625,2.9296875
73358,-0.0302734375,-0.06787109375,0.998046875,1.953125,2.0751953125,2.9296875
73368,-0.0289306640625,-0.06640625,1.00048828125,1.64794921875,2.50244140625,2.9296875
73376,-0.0286865234375,-0.066162109375,0.9998779296875,2.01416015625,2.44140625,2.74658203125
73384,-0.0289306640625,-0.0670166015625,0.995361328125,2.3193359375,1.89208984375,2.8076171875
73393,-0.0313720703125,-0.06884765625,0.99267578125,2.197265625,1.8310546875,2.86865234375
73401,-0.029541015625,-0.0679931640625,0.9947509765625,1.953125,2.197265625,2.86865234375
73410,-0.0277099609375,-0.06591796875,0.998291015625,1.64794921875,2.25830078125,2.74658203125
73418,-0.02783203125,-0.066162109375,1.0003662109375,1.708984375,2.197265625,2.86865234375
73427,-0.02783203125,-0.06494140625,0.9970703125,1.8310546875,2.13623046875,2.86865234375
73435,-0.0289306640625,-0.065185546875,0.99365234375,2.13623046875,2.0751953125,2.86865234375
73444,-0.0291748046875,-0.068603515625,0.9937744140625,2.01416015625,1.953125,2.86865234375
73453,-0.0306396484375,-0.067626953125,0.9967041015625,2.01416015625,2.13623046875,2.86865234375
73461,-0.0286865234375,-0.0675048828125,0.9996337890625,1.89208984375,2.38037109375,2.99072265625
73470,-0.029541015625,-0.0662841796875,0.998291015625,1.89208984375,2.13623046875,2.8076171875
73480,-0.0289306640625,-0.066650390625,0.9971923828125,2.01416015625,2.01416015625,2.86865234375
73487,-0.02880859375,-0.066162109375,0.9940185546875,1.89208984375,2.197265625,2.86865234375
73496,-0.030029296875,-0.06591796875,0.9932861328125,1.953125,2.13623046875,2.74658203125
73504,-0.0291748046875,-0.0675048828125,0.9981689453125,2.0751953125,2.13623046875,2.74658203125
73512,-0.029541015625,-0.06591796875,0.9976806640625,1.77001953125,2.0751953125,2.86865234375
73521,-0.029541015625,-0.0654296875,0.9974365234375,1.953125,2.01416015625,2.74658203125
73529,-0.029541015625,-0.0667724609375,0.9957275390625,2.01416015625,1.953125,2.8076171875
73538,-0.02978515625,-0.0662841796875,0.995361328125,2.13623046875,1.953125,2.8076171875
73546,-0.0291748046875,-0.0667724609375,0.995361328125,1.953125,2.13623046875,2.86865234375
73555,-0.0286865234375,-0.0665283203125,0.997314453125,2.197265625,2.25830078125,2.9296875
73563,-0.0286865234375,-0.06591796875,0.9979248046875,2.01416015625,2.25830078125,2.9296875
73572,-0.0284423828125,-0.06640625,0.99658203125,2.197265625,2.0751953125,2.86865234375
73581,-0.029052734375,-0.068115234375,0.9949951171875,2.13623046875,1.953125,2.74658203125
73589,-0.0289306640625,-0.0677490234375,0.9962158203125,1.89208984375,2.197265625,2.74658203125
73598,-0.0296630859375,-0.0667724609375,0.9967041015625,1.89208984375,2.25830078125,2.8076171875
73608,-0.0274658203125,-0.0665283203125,0.9971923828125,1.89208984375,2.25830078125,2.86865234375
73615,-0.028564453125,-0.06494140625,0.9971923828125,2.0751953125,2.25830078125,2.86865234375
73624,-0.0296630859375,-0.0665283203125,0.995849609375,2.01416015625,2.01416015625,2.9296875
73632,-0.0294189453125,-0.0670166015625,0.994384765625,2.01416015625,2.197265625,2.9296875
73640,-0.0296630859375,-0.0657958984375,0.9969482421875,1.8310546875,2.25830078125,2.9296875
73649,-0.028076171875,-0.0650634765625,0.9981689453125,1.89208984375,2.197265625,2.8076171875
73658,-0.0291748046875,-0.0655517578125,0.9989013671875,1.8310546875,2.13623046875,2.74658203125
73666,-0.0301513671875,-0.06787109375,0.9959716796875,1.953125,2.0751953125,2.74658203125
73675,-0.029296875,-0.067626953125,0.995849609375,2.0751953125,2.0751953125,2.8076171875
73683,-0.029541015625,-0.06640625,0.99658203125,1.953125,2.197265625,2.74658203125
73692,-0.0291748046875,-0.0670166015625,0.9974365234375,1.77001953125,2.25830078125,2.86865234375
73700,-0.02978515625,-0.0654296875,0.9967041015625,1.89208984375,2.25830078125,2.9296875
73709,-0.029541015625,-0.066162109375,0.99609375,1.89208984375,2.3193359375,2.86865234375
73717,-0.02783203125,-0.0655517578125,0.99560546875,1.953125,2.25830078125,2.8076171875
73726,-0.0286865234375,-0.0654296875,0.996337890625,2.01416015625,2.25830078125,2.685546875
73736,-0.028076171875,-0.066650390625,0.9970703125,2.13623046875,2.3193359375,2.8076171875
73743,-0.0296630859375,-0.067138671875,0.99755859375,1.953125,2.25830078125,2.8076171875
73752,-0.0284423828125,-0.0687255859375,0.9969482421875,2.01416015625,2.197265625,2.5634765625
73760,-0.0294189453125,-0.067626953125,0.99658203125,1.953125,2.197265625,2.74658203125
73768,-0.02978515625,-0.066650390625,0.9969482421875,1.953125,2.0751953125,2.8076171875
73777,-0.029541015625,-0.0667724609375,0.9962158203125,1.89208984375,2.197265625,2.86865234375
73786,-0.0286865234375,-0.0655517578125,0.9971923828125,1.708984375,2.13623046875,2.9296875
73794,-0.028564453125,-0.0665283203125,0.995849609375,1.953125,2.197265625,2.99072265625
73803,-0.02783203125,-0.06494140625,0.99560546875,2.0751953125,2.13623046875,2.9296875
73812,-0.0296630859375,-0.066162109375,0.99609375,2.01416015625,2.25830078125,2.8076171875
73820,-0.0291748046875,-0.066650390625,0.9957275390625,2.01416015625,2.13623046875,2.86865234375
73828,-0.0296630859375,-0.0662841796875,0.9967041015625,2.01416015625,2.197265625,2.9296875
73837,-0.029296875,-0.06787109375,0.99755859375,2.197265625,2.25830078125,2.74658203125
73846,-0.030029296875,-0.0670166015625,0.9969482421875,2.01416015625,2.25830078125,2.685546875
73854,-0.029052734375,-0.0667724609375,0.9959716796875,2.01416015625,2.197265625,2.9296875
73864,-0.0291748046875,-0.0653076171875,0.993896484375,2.0751953125,2.197265625,2.8076171875
73871,-0.0302734375,-0.0655517578125,0.9962158203125,2.13623046875,2.01416015625,2.9296875
73880,-0.0281982421875,-0.065673828125,0.998291015625,2.13623046875,2.197265625,2.8076171875
73888,-0.0281982421875,-0.0648193359375,0.9991455078125,1.8310546875,2.25830078125,2.8076171875
73897,-0.0283203125,-0.0655517578125,0.997802734375,2.01416015625,2.0751953125,2.8076171875
73905,-0.0294189453125,-0.0660400390625,0.9931640625,2.13623046875,1.89208984375,2.74658203125
73914,-0.0311279296875,-0.067626953125,0.991943359375,2.197265625,1.89208984375,2.8076171875
73922,-0.0308837890625,-0.0693359375,0.99609375,2.0751953125,2.0751953125,2.9296875
73931,-0.029296875,-0.067626953125,1.000244140625,1.708984375,2.62451171875,2.9296875
73939,-0.026611328125,-0.0653076171875,1.000244140625,1.64794921875,2.5634765625,2.8076171875
73948,-0.0277099609375,-0.0634765625,0.99560546875,1.89208984375,2.13623046875,2.86865234375
73956,-0.0301513671875,-0.068115234375,0.9931640625,2.197265625,1.77001953125,2.86865234375
73965,-0.0301513671875,-0.067626953125,0.991943359375,2.197265625,1.64794921875,2.8076171875
73974,-0.030029296875,-0.0654296875,0.997314453125,1.89208984375,2.13623046875,2.8076171875
73982,-0.0286865234375,-0.067138671875,1.00048828125,1.708984375,2.38037109375,2.86865234375
73992,-0.0279541015625,-0.064697265625,0.9990234375,1.708984375,2.3193359375,2.8076171875
73999,-0.0284423828125,-0.065673828125,0.9942626953125,1.953125,2.0751953125,2.86865234375
74008,-0.029541015625,-0.067138671875,0.991943359375,2.197265625,1.953125,2.74658203125
74016,-0.031005859375,-0.06787109375,0.9947509765625,2.0751953125,1.953125,2.74658203125
74025,-0.029541015625,-0.0670166015625,0.998046875,1.89208984375,2.3193359375,2.86865234375
74033,-0.0286865234375,-0.065673828125,0.99951171875,1.89208984375,2.13623046875,2.86865234375
74042,-0.029296875,-0.065673828125,0.9974365234375,2.25830078125,2.01416015625,2.9296875
74051,-0.0291748046875,-0.0654296875,0.9927978515625,2.0751953125,2.0751953125,2.9296875
74059,-0.029541015625,-0.0665283203125,0.99365234375,2.01416015625,1.89208984375,2.74658203125
74067,-0.0306396484375,-0.0682373046875,0.9967041015625,1.953125,2.01416015625,2.74658203125
74076,-0.0306396484375,-0.066650390625,0.9996337890625,1.8310546875,2.197265625,2.9296875
74085,-0.027587890625,-0.0665283203125,1.000244140625,1.89208984375,2.197265625,2.9296875
74093,-0.028564453125,-0.06591796875,0.9962158203125,2.01416015625,2.01416015625,2.99072265625
74102,-0.029052734375,-0.06787109375,0.992431640625,2.13623046875,1.953125,3.11279296875
74110,-0.0301513671875,-0.067626953125,0.9930419921875,2.197265625,2.0751953125,2.86865234375
74120,-0.0294189453125,-0.0673828125,0.997314453125,1.8310546875,2.13623046875,2.8076171875
74128,-0.0277099609375,-0.066162109375,0.999755859375,1.77001953125,2.44140625,2.86865234375
74136,-0.0279541015625,-0.0648193359375,0.9976806640625,1.8310546875,2.197265625,2.8076171875
74145,-0.0291748046875,-0.06591796875,0.9937744140625,2.0751953125,2.01416015625,2.8076171875
74153,-0.0301513671875,-0.067626953125,0.9927978515625,2.0751953125,2.197265625,2.9296875
74161,-0.0296630859375,-0.0672607421875,0.9962158203125,1.89208984375,2.3193359375,2.8076171875
74170,-0.0303955078125,-0.0665283203125,0.9996337890625,1.5869140625,2.3193359375,2.9296875
74179,-0.0281982421875,-0.06494140625,0.9996337890625,1.708984375,2.197265625,3.0517578125
74187,-0.028076171875,-0.06591796875,0.9969482421875,2.13623046875,2.13623046875,2.8076171875
74196,-0.0301513671875,-0.0662841796875,0.9935302734375,2.13623046875,1.953125,2.8076171875
74204,-0.03076171875,-0.067138671875,0.9945068359375,2.13623046875,2.01416015625,2.99072265625
74213,-0.0296630859375,-0.067138671875,0.996826171875,2.01416015625,2.3193359375,2.9296875
74221,-0.0294189453125,-0.065673828125,0.9990234375,1.52587890625,2.50244140625,2.86865234375
74230,-0.029296875,-0.0655517578125,0.998291015625,1.8310546875,2.38037109375,2.9296875
74239,-0.02880859375,-0.0657958984375,0.9957275390625,2.01416015625,2.01416015625,2.99072265625
74248,-0.028564453125,-0.0670166015625,0.993408203125,2.0751953125,2.01416015625,3.0517578125
74256,-0.0289306640625,-0.0679931640625,0.9927978515625,2.01416015625,2.0751953125,2.86865234375
74264,-0.02978515625,-0.067138671875,0.99658203125,1.77001953125,2.13623046875,2.8076171875
74272,-0.0281982421875,-0.066650390625,1.0,1.8310546875,2.38037109375,2.9296875
74281,-0.028564453125,-0.066162109375,0.99853515625,2.01416015625,2.13623046875,2.8076171875
74290,-0.0289306640625,-0.0670166015625,0.9957275390625,2.197265625,2.0751953125,2.99072265625
74298,-0.0296630859375,-0.066650390625,0.9942626953125,2.197265625,2.01416015625,3.11279296875
74307,-0.030029296875,-0.0672607421875,0.995849609375,2.01416015625,2.13623046875,2.9296875
74315,-0.029052734375,-0.066650390625,0.9964599609375,2.01416015625,2.3193359375,2.9296875
74324,-0.0296630859375,-0.06591796875,0.9979248046875,1.77001953125,2.13623046875,2.99072265625
74332,-0.0296630859375,-0.0665283203125,0.9970703125,2.01416015625,2.13623046875,2.86865234375
74341,-0.0296630859375,-0.06591796875,0.993896484375,2.197265625,2.25830078125,2.86865234375
74350,-0.0294189453125,-0.06640625,0.99560546875,1.953125,2.0751953125,2.86865234375
74358,-0.0294189453125,-0.06640625,0.9969482421875,1.8310546875,2.197265625,2.86865234375
74367,-0.0296630859375,-0.0650634765625,0.9976806640625,1.8310546875,2.0751953125,2.99072265625
74376,-0.029541015625,-0.066650390625,0.998046875,1.953125,2.13623046875,2.86865234375
74384,-0.0301513671875,-0.0662841796875,0.9957275390625,1.953125,2.0751953125,2.99072265625
74393,-0.0294189453125,-0.0672607421875,0.9969482421875,2.01416015625,2.01416015625,2.9296875
74401,-0.0284423828125,-0.0667724609375,0.9959716796875,2.01416015625,2.25830078125,2.8076171875
74409,-0.0283203125,-0.0660400390625,0.9967041015625,1.8310546875,2.3193359375,2.9296875
74418,-0.0277099609375,-0.066650390625,0.9970703125,1.8310546875,2.25830078125,2.8076171875
74426,-0.0286865234375,-0.065673828125,0.995361328125,1.89208984375,2.197265625,2.74658203125
74435,-0.0296630859375,-0.0675048828125,0.99609375,2.01416015625,2.0751953125,2.74658203125
74444,-0.0299072265625,-0.06689453125,0.995849609375,2.197265625,2.13623046875,2.99072265625
74452,-0.0301513671875,-0.06689453125,0.998046875,1.953125,2.13623046875,2.9296875
74461,-0.029296875,-0.066162109375,0.9976806640625,1.953125,2.0751953125,2.99072265625
74469,-0.030029296875,-0.065673828125,0.99609375,2.0751953125,2.01416015625,2.86865234375
74478,-0.029296875,-0.0673828125,0.995849609375,2.13623046875,2.197265625,2.74658203125
74488,-0.028564453125,-0.0657958984375,0.9962158203125,1.89208984375,2.25830078125,2.99072265625
74495,-0.029296875,-0.0657958984375,0.997314453125,2.01416015625,2.197265625,2.9296875
74504,-0.0279541015625,-0.066162109375,0.9964599609375,1.953125,2.25830078125,2.99072265625
74512,-0.02978515625,-0.0665283203125,0.996826171875,2.01416015625,2.3193359375,2.8076171875
74520,-0.028564453125,-0.0673828125,0.9962158203125,1.953125,2.0751953125,2.9296875
74529,-0.029541015625,-0.0665283203125,0.9962158203125,1.953125,2.13623046875,2.86865234375
74537,-0.0299072265625,-0.0670166015625,0.9967041015625,2.01416015625,2.01416015625,2.86865234375
74546,-0.0299072265625,-0.0675048828125,0.9969482421875,1.953125,2.13623046875,2.74658203125
74555,-0.0296630859375,-0.066162109375,0.996337890625,2.01416015625,2.0751953125,2.8076171875
74563,-0.0296630859375,-0.0662841796875,0.9976806640625,1.953125,2.197265625,2.99072265625
74572,-0.02880859375,-0.0657958984375,0.997802734375,1.89208984375,2.25830078125,2.86865234375
74580,-0.0286865234375,-0.065673828125,0.9952392578125,1.953125,2.0751953125,2.8076171875
74589,-0.0284423828125,-0.066162109375,0.994384765625,1.953125,2.0751953125,2.86865234375
74597,-0.030029296875,-0.0675048828125,0.994140625,2.0751953125,2.13623046875,2.99072265625
74606,-0.029052734375,-0.0672607421875,0.99609375,1.89208984375,2.3193359375,2.9296875
74616,-0.0283203125,-0.065673828125,0.9967041015625,1.77001953125,2.01416015625,2.8076171875
74623,-0.0291748046875,-0.0670166015625,0.9976806640625,1.89208984375,2.25830078125,2.86865234375
74632,-0.0284423828125,-0.06494140625,0.9951171875,1.89208984375,2.25830078125,2.86865234375
74640,-0.0299072265625,-0.066162109375,0.9962158203125,2.0751953125,2.13623046875,2.8076171875
74648,-0.030029296875,-0.067138671875,0.995849609375,2.0751953125,2.13623046875,2.86865234375
74657,-0.029541015625,-0.0660400390625,0.9969482421875,2.01416015625,2.197265625,2.86865234375
74666,-0.0289306640625,-0.066162109375,0.99658203125,2.0751953125,2.197265625,2.9296875
74674,-0.028564453125,-0.066650390625,0.99658203125,2.13623046875,2.197265625,3.0517578125
74683,-0.0286865234375,-0.0655517578125,0.9969482421875,2.0751953125,2.3193359375,2.99072265625
74691,-0.0283203125,-0.065185546875,0.9970703125,1.89208984375,2.38037109375,3.11279296875
74700,-0.0291748046875,-0.066650390625,0.9971923828125,2.01416015625,2.197265625,3.0517578125
74708,-0.029541015625,-0.0682373046875,0.99609375,2.0751953125,2.0751953125,2.74658203125
74717,-0.0299072265625,-0.066650390625,0.99365234375,2.01416015625,2.25830078125,2.8076171875
74725,-0.0299072265625,-0.0675048828125,0.9964599609375,1.8310546875,2.197265625,2.86865234375
74734,-0.0284423828125,-0.066650390625,0.998046875,1.64794921875,2.25830078125,2.86865234375
74744,-0.0286865234375,-0.0645751953125,0.9971923828125,1.708984375,2.38037109375,2.9296875
74751,-0.0277099609375,-0.066162109375,0.995849609375,2.01416015625,2.13623046875,2.86865234375
74760,-0.02880859375,-0.066162109375,0.994140625,2.01416015625,2.01416015625,2.86865234375
74768,-0.0302734375,-0.0675048828125,0.9952392578125,2.0751953125,2.197265625,2.9296875
74777,-0.0286865234375,-0.0667724609375,0.9949951171875,1.77001953125,2.3193359375,2.9296875
74785,-0.029296875,-0.066650390625,0.997802734375,1.89208984375,2.25830078125,2.9296875
74794,-0.0283203125,-0.0672607421875,0.997314453125,1.77001953125,2.25830078125,2.86865234375
74802,-0.029296875,-0.0645751953125,0.994873046875,1.89208984375,2.0751953125,2.86865234375
74811,-0.029541015625,-0.06689453125,0.9942626953125,1.953125,2.197265625,2.86865234375
74819,-0.0303955078125,-0.06591796875,0.9962158203125,1.77001953125,2.13623046875,2.86865234375
74828,-0.029296875,-0.0657958984375,0.99853515625,1.77001953125,2.13623046875,2.8076171875
74837,-0.0283203125,-0.065673828125,0.997802734375,1.89208984375,2.3193359375,2.86865234375
74845,-0.0294189453125,-0.0653076171875,0.9949951171875,1.953125,2.197265625,2.86865234375
74854,-0.0294189453125,-0.0665283203125,0.9940185546875,1.953125,2.0751953125,2.9296875
74862,-0.0306396484375,-0.0665283203125,0.99462890625,2.01416015625,2.13623046875,2.99072265625
74872,-0.029541015625,-0.06689453125,0.9976806640625,1.89208984375,2.197265625,2.99072265625
74879,-0.0289306640625,-0.0660400390625,0.9984130859375,1.89208984375,2.197265625,2.99072265625
74888,-0.0291748046875,-0.064697265625,0.9981689453125,1.89208984375,2.25830078125,2.9296875
74896,-0.0289306640625,-0.0672607421875,0.9949951171875,1.8310546875,2.197265625,2.99072265625
74905,-0.030029296875,-0.0670166015625,0.9935302734375,1.953125,1.953125,2.86865234375
74913,-0.0301513671875,-0.067626953125,0.9967041015625,2.0751953125,2.13623046875,2.8076171875
74922,-0.0277099609375,-0.0665283203125,0.9986572265625,1.708984375,2.50244140625,2.9296875
74931,-0.028564453125,-0.064697265625,0.9971923828125,1.77001953125,2.13623046875,2.8076171875
74939,-0.0281982421875,-0.0665283203125,0.996826171875,2.0751953125,2.197265625,2.9296875
74948,-0.030029296875,-0.067138671875,0.9940185546875,2.13623046875,2.0751953125,2.9296875
74956,-0.030029296875,-0.06787109375,0.995361328125,2.01416015625,2.01416015625,2.74658203125
74965,-0.0279541015625,-0.067138671875,0.9976806640625,1.953125,2.197265625,2.86865234375
74973,-0.029541015625,-0.0657958984375,0.997802734375,1.89208984375,2.0751953125,2.8076171875
74982,-0.028076171875,-0.0665283203125,0.99755859375,1.953125,2.01416015625,2.86865234375
74990,-0.0299072265625,-0.0660400390625,0.9947509765625,2.13623046875,2.0751953125,2.99072265625
75000,-0.030029296875,-0.06787109375,0.996826171875,2.13623046875,2.0751953125,2.86865234375
75008,-0.0289306640625,-0.0673828125,0.9954833984375,1.89208984375,2.25830078125,2.8076171875
75016,-0.0301513671875,-0.0660400390625,0.996826171875,1.89208984375,2.197265625,2.86865234375
75025,-0.029296875,-0.0673828125,0.9984130859375,1.89208984375,2.197265625,2.9296875
75033,-0.029296875,-0.064697265625,0.99658203125,1.953125,2.197265625,2.9296875
75042,-0.0302734375,-0.066650390625,0.99609375,1.953125,2.197265625,2.99072265625
75050,-0.029052734375,-0.0670166015625,0.994384765625,1.953125,2.25830078125,2.8076171875
75059,-0.0299072265625,-0.0657958984375,0.9957275390625,2.01416015625,2.13623046875,2.74658203125
75067,-0.028564453125,-0.067626953125,0.997802734375,2.0751953125,2.25830078125,2.86865234375
75076,-0.0283203125,-0.0657958984375,0.997314453125,1.953125,2.197265625,2.9296875
75084,-0.0289306640625,-0.066650390625,0.99658203125,2.01416015625,2.13623046875,2.99072265625
75093,-0.0286865234375,-0.0673828125,0.9957275390625,2.01416015625,2.197265625,2.86865234375
75101,-0.0306396484375,-0.0655517578125,0.9957275390625,1.89208984375,2.197265625,2.9296875
75112,-0.0303955078125,-0.0675048828125,0.9979248046875,2.01416015625,2.13623046875,2.86865234375
75118,-0.0289306640625,-0.0657958984375,0.997314453125,1.89208984375,2.197265625,2.86865234375
75128,-0.0284423828125,-0.06640625,0.99755859375,1.953125,2.13623046875,2.86865234375
75135,-0.0283203125,-0.06787109375,0.995849609375,2.01416015625,1.953125,2.74658203125
75144,-0.0296630859375,-0.065673828125,0.9959716796875,1.89208984375,1.89208984375,2.74658203125
75153,-0.0286865234375,-0.0670166015625,0.9967041015625,1.953125,2.01416015625,2.8076171875
75161,-0.0279541015625,-0.0660400390625,0.9971923828125,1.89208984375,2.25830078125,2.99072265625
75170,-0.0302734375,-0.06640625,0.9969482421875,1.953125,2.13623046875,2.86865234375
75178,-0.0283203125,-0.0667724609375,0.9970703125,1.8310546875,2.197265625,2.8076171875
75187,-0.0289306640625,-0.066162109375,0.996826171875,1.89208984375,2.01416015625,2.99072265625
75196,-0.02880859375,-0.06640625,0.995361328125,2.01416015625,2.0751953125,2.8076171875
75204,-0.0294189453125,-0.0657958984375,0.9951171875,2.13623046875,2.197265625,2.9296875
75213,-0.030517578125,-0.0665283203125,0.9967041015625,1.89208984375,2.25830078125,2.9296875
75221,-0.0291748046875,-0.0673828125,0.9970703125,1.89208984375,2.38037109375,3.0517578125
75230,-0.0296630859375,-0.066162109375,0.997802734375,1.89208984375,2.197265625,2.9296875
75240,-0.02880859375,-0.0677490234375,0.9970703125,2.13623046875,2.0751953125,2.74658203125
75247,-0.0279541015625,-0.06640625,0.9967041015625,1.953125,2.13623046875,2.86865234375
75256,-0.02978515625,-0.06640625,0.9962158203125,1.953125,2.0751953125,2.8076171875
75264,-0.0289306640625,-0.0673828125,0.997314453125,1.89208984375,2.0751953125,2.9296875
75272,-0.02978515625,-0.0654296875,0.996826171875,1.77001953125,2.197265625,2.86865234375
75281,-0.0299072265625,-0.06689453125,0.996826171875,1.953125,2.3193359375,2.8076171875
75290,-0.028564453125,-0.0667724609375,0.9957275390625,2.0751953125,2.13623046875,2.8076171875
75298,-0.029296875,-0.066162109375,0.996826171875,1.89208984375,2.197265625,2.8076171875
75307,-0.029052734375,-0.0673828125,0.99755859375,2.01416015625,2.3193359375,2.86865234375
75315,-0.029296875,-0.0655517578125,0.9964599609375,1.77001953125,2.197265625,3.0517578125
75324,-0.0302734375,-0.0677490234375,0.9964599609375,1.8310546875,2.13623046875,2.8076171875
75332,-0.0289306640625,-0.0675048828125,0.99560546875,2.01416015625,2.01416015625,3.0517578125
75341,-0.030029296875,-0.06591796875,0.9967041015625,1.953125,2.197265625,2.86865234375
75349,-0.0294189453125,-0.06689453125,0.9979248046875,1.953125,2.197265625,2.9296875
75358,-0.028076171875,-0.06494140625,0.9964599609375,1.89208984375,2.01416015625,2.99072265625
75368,-0.0289306640625,-0.066650390625,0.9964599609375,2.13623046875,1.953125,2.99072265625
75375,-0.0296630859375,-0.066650390625,0.99560546875,2.01416015625,2.0751953125,2.9296875
75384,-0.029052734375,-0.0657958984375,0.996337890625,1.953125,2.13623046875,2.86865234375
75392,-0.0283203125,-0.067138671875,0.997802734375,2.01416015625,2.197265625,2.9296875
75401,-0.02880859375,-0.0660400390625,0.9979248046875,1.953125,2.197265625,2.86865234375
75409,-0.029296875,-0.0670166015625,0.99609375,2.0751953125,2.197265625,2.86865234375
75418,-0.02978515625,-0.0672607421875,0.996337890625,2.197265625,2.197265625,3.0517578125
75426,-0.0291748046875,-0.0660400390625,0.99609375,2.01416015625,2.13623046875,2.9296875
75435,-0.0286865234375,-0.0677490234375,0.997314453125,1.953125,2.25830078125,2.8076171875
75443,-0.029052734375,-0.0657958984375,0.999267578125,1.953125,2.197265625,3.0517578125
75452,-0.029052734375,-0.0660400390625,0.9971923828125,1.953125,2.13623046875,2.9296875
75461,-0.0286865234375,-0.0672607421875,0.9967041015625,2.0751953125,2.13623046875,2.86865234375
75469,-0.029296875,-0.06640625,0.993896484375,2.01416015625,2.13623046875,2.9296875
75478,-0.029052734375,-0.067138671875,0.996826171875,2.0751953125,2.13623046875,2.8076171875
75486,-0.029296875,-0.0665283203125,0.9976806640625,2.13623046875,2.13623046875,2.86865234375
75496,-0.0291748046875,-0.065673828125,0.998779296875,1.953125,2.13623046875,2.8076171875
75503,-0.0286865234375,-0.0665283203125,0.9974365234375,2.01416015625,2.25830078125,2.74658203125
75512,-0.02880859375,-0.065673828125,0.995361328125,2.0751953125,2.0751953125,2.8076171875
75520,-0.029541015625,-0.066650390625,0.996337890625,2.0751953125,2.01416015625,2.8076171875
75528,-0.029052734375,-0.066650390625,0.9959716796875,1.8310546875,2.3193359375,2.99072265625
75537,-0.029296875,-0.066650390625,0.9986572265625,1.77001953125,2.0751953125,2.9296875
75546,-0.0286865234375,-0.0667724609375,0.998779296875,1.89208984375,2.197265625,2.9296875
75554,-0.02880859375,-0.065673828125,0.996337890625,1.89208984375,2.197265625,2.9296875
75563,-0.029296875,-0.067138671875,0.9952392578125,2.01416015625,2.01416015625,2.99072265625
75571,-0.0294189453125,-0.0679931640625,0.995849609375,1.953125,2.25830078125,3.11279296875
75580,-0.0296630859375,-0.0662841796875,0.9971923828125,1.8310546875,2.3193359375,2.9296875
75588,-0.02880859375,-0.066650390625,0.998046875,1.89208984375,2.197265625,2.99072265625
75597,-0.02880859375,-0.065673828125,0.9969482421875,1.89208984375,2.01416015625,2.86865234375
75605,-0.0281982421875,-0.0655517578125,0.99658203125,1.89208984375,1.8310546875,2.86865234375
75614,-0.0286865234375,-0.067626953125,0.9937744140625,1.953125,2.0751953125,2.8076171875
75624,-0.029296875,-0.06689453125,0.9942626953125,1.89208984375,1.953125,2.8076171875
75631,-0.030517578125,-0.067626953125,0.99755859375,2.01416015625,2.0751953125,2.8076171875
75640,-0.0284423828125,-0.0657958984375,1.0,1.8310546875,2.0751953125,2.9296875
75648,-0.028564453125,-0.0654296875,0.9974365234375,1.77001953125,2.197265625,2.86865234375
75657,-0.028076171875,-0.06689453125,0.9949951171875,2.0751953125,2.25830078125,2.74658203125
75665,-0.0296630859375,-0.066650390625,0.99365234375,2.0751953125,2.0751953125,2.685546875
75674,-0.029296875,-0.06787109375,0.9959716796875,2.01416015625,2.13623046875,2.8076171875
75682,-0.0284423828125,-0.0667724609375,0.99755859375,1.89208984375,2.25830078125,2.86865234375
75691,-0.0284423828125,-0.0655517578125,0.99755859375,1.8310546875,2.25830078125,2.86865234375
75699,-0.0281982421875,-0.0670166015625,0.9976806640625,2.0751953125,2.13623046875,2.9296875
75708,-0.0296630859375,-0.06640625,0.994140625,2.0751953125,2.01416015625,2.8076171875
75716,-0.03076171875,-0.0679931640625,0.9942626953125,2.3193359375,1.953125,2.9296875
75725,-0.0296630859375,-0.0673828125,0.997314453125,2.0751953125,2.25830078125,2.9296875
75734,-0.0294189453125,-0.0653076171875,0.998291015625,1.89208984375,2.01416015625,2.9296875
75742,-0.0289306640625,-0.066650390625,0.9989013671875,2.01416015625,2.25830078125,2.9296875
75752,-0.028564453125,-0.0650634765625,0.994384765625,2.01416015625,2.0751953125,2.99072265625
75759,-0.0308837890625,-0.0677490234375,0.99365234375,2.0751953125,2.0751953125,2.8076171875
75768,-0.029296875,-0.0672607421875,0.9964599609375,1.89208984375,2.25830078125,2.74658203125
75776,-0.029296875,-0.06591796875,0.9979248046875,1.77001953125,2.197265625,2.86865234375
75785,-0.0291748046875,-0.06689453125,0.9998779296875,1.953125,2.197265625,2.99072265625
75794,-0.028076171875,-0.065185546875,0.996826171875,2.01416015625,2.0751953125,2.9296875
75802,-0.029541015625,-0.066162109375,0.9937744140625,2.01416015625,2.01416015625,3.0517578125
75811,-0.0289306640625,-0.0675048828125,0.9942626953125,2.01416015625,2.0751953125,2.99072265625
75819,-0.030517578125,-0.0665283203125,0.9964599609375,1.77001953125,2.0751953125,2.86865234375
75828,-0.0289306640625,-0.0660400390625,0.9991455078125,1.8310546875,2.197265625,2.74658203125
75836,-0.0283203125,-0.0655517578125,0.9971923828125,1.89208984375,2.13623046875,2.86865234375
75845,-0.02880859375,-0.06640625,0.9954833984375,2.01416015625,2.0751953125,2.86865234375
75853,-0.0291748046875,-0.0670166015625,0.99462890625,2.01416015625,2.0751953125,2.86865234375
75862,-0.029541015625,-0.0665283203125,0.9964599609375,1.953125,2.25830078125,2.8076171875
75870,-0.029052734375,-0.0670166015625,0.9981689453125,1.953125,2.197265625,2.8076171875
75880,-0.028564453125,-0.0653076171875,0.9971923828125,2.01416015625,2.38037109375,3.0517578125
75887,-0.0301513671875,-0.0660400390625,0.9967041015625,1.953125,2.25830078125,3.0517578125
75896,-0.028076171875,-0.0673828125,0.996826171875,2.197265625,2.25830078125,3.0517578125
75904,-0.02880859375,-0.06494140625,0.9957275390625,1.8310546875,2.13623046875,2.86865234375
75913,-0.028076171875,-0.0667724609375,0.9959716796875,1.89208984375,2.3193359375,2.99072265625
75922,-0.0289306640625,-0.065673828125,0.9967041015625,1.77001953125,2.25830078125,2.99072265625
75930,-0.030029296875,-0.066162109375,0.996826171875,1.953125,2.197265625,2.9296875
75939,-0.0283203125,-0.0665283203125,0.9962158203125,2.01416015625,2.13623046875,2.86865234375
75947,-0.029541015625,-0.0660400390625,0.9957275390625,1.953125,1.953125,2.86865234375
75956,-0.030029296875,-0.06640625,0.996826171875,1.953125,1.953125,2.8076171875
75965,-0.02880859375,-0.0660400390625,0.9964599609375,1.953125,2.197265625,2.74658203125
75973,-0.0286865234375,-0.066162109375,0.996826171875,1.8310546875,2.13623046875,2.8076171875
75982,-0.02880859375,-0.067138671875,0.995849609375,1.89208984375,2.13623046875,2.9296875
75990,-0.0299072265625,-0.06640625,0.996826171875,1.8310546875,2.13623046875,2.86865234375
75998,-0.0284423828125,-0.066650390625,0.99755859375,2.0751953125,2.13623046875,2.685546875
76008,-0.0291748046875,-0.065673828125,0.9979248046875,1.953125,2.25830078125,2.74658203125
76015,-0.0296630859375,-0.06591796875,0.9979248046875,2.01416015625,2.3193359375,2.9296875
76024,-0.0289306640625,-0.066162109375,0.995849609375,2.0751953125,2.13623046875,2.9296875
76033,-0.0308837890625,-0.06591796875,0.9951171875,2.0751953125,2.0751953125,2.86865234375
76041,-0.0302734375,-0.067626953125,0.9979248046875,2.01416015625,2.13623046875,2.8076171875
76050,-0.0289306640625,-0.06591796875,0.9971923828125,1.708984375,2.25830078125,2.86865234375
76058,-0.029296875,-0.0662841796875,0.9974365234375,1.8310546875,2.25830078125,2.9296875
76067,-0.0281982421875,-0.066650390625,0.9964599609375,2.01416015625,2.25830078125,2.9296875
76075,-0.0294189453125,-0.0654296875,0.9942626953125,1.953125,2.197265625,2.99072265625
76084,-0.0283203125,-0.067138671875,0.9954833984375,2.01416015625,2.3193359375,2.99072265625
76092,-0.0299072265625,-0.066162109375,0.99755859375,1.953125,2.197265625,2.86865234375
76101,-0.02978515625,-0.06640625,0.9981689453125,1.89208984375,2.13623046875,2.685546875
76110,-0.0291748046875,-0.06640625,0.996826171875,1.89208984375,2.13623046875,2.8076171875
76120,-0.02880859375,-0.0654296875,0.99658203125,1.89208984375,2.13623046875,2.9296875
76126,-0.029296875,-0.0673828125,0.995361328125,2.0751953125,2.197265625,2.86865234375
76136,-0.030029296875,-0.0662841796875,0.9942626953125,2.01416015625,2.197265625,2.8076171875
76144,-0.030029296875,-0.0665283203125,0.998046875,1.953125,2.197265625,2.9296875
76152,-0.02880859375,-0.0660400390625,0.99853515625,1.77001953125,2.3193359375,2.9296875
76161,-0.0279541015625,-0.0653076171875,0.9964599609375,1.8310546875,2.0751953125,2.86865234375
76169,-0.02880859375,-0.0675048828125,0.9957275390625,2.13623046875,1.953125,2.9296875
76178,-0.030029296875,-0.0672607421875,0.9951171875,2.0751953125,1.89208984375,2.99072265625
76187,-0.0299072265625,-0.0677490234375,0.9969482421875,1.953125,2.0751953125,2.8076171875
76195,-0.028564453125,-0.06640625,0.9989013671875,1.89208984375,2.38037109375,2.86865234375
76204,-0.0296630859375,-0.065673828125,0.99951171875,1.89208984375,2.3193359375,2.8076171875
76212,-0.0279541015625,-0.06591796875,0.9964599609375,2.0751953125,2.197265625,2.8076171875
76221,-0.0302734375,-0.0660400390625,0.992919921875,2.0751953125,2.13623046875,2.8076171875
76229,-0.030029296875,-0.0670166015625,0.9957275390625,2.01416015625,2.13623046875,2.8076171875
76238,-0.02978515625,-0.067138671875,0.9996337890625,1.8310546875,2.25830078125,2.8076171875
76248,-0.0296630859375,-0.0648193359375,0.999267578125,1.77001953125,2.3193359375,2.86865234375
76255,-0.0281982421875,-0.066650390625,0.9979248046875,1.8310546875,2.13623046875,2.74658203125
76264,-0.0291748046875,-0.066162109375,0.9942626953125,2.0751953125,1.89208984375,2.86865234375
76272,-0.0303955078125,-0.0677490234375,0.9935302734375,2.197265625,1.89208984375,3.0517578125
76280,-0.0289306640625,-0.066650390625,0.9949951171875,2.0751953125,2.25830078125,2.99072265625
76289,-0.029052734375,-0.06591796875,0.9998779296875,1.8310546875,2.197265625,2.9296875
76298,-0.0277099609375,-0.06689453125,1.000244140625,1.77001953125,2.197265625,2.99072265625
76306,-0.0286865234375,-0.0648193359375,0.99609375,2.01416015625,2.01416015625,2.9296875
76315,-0.029052734375,-0.067138671875,0.9931640625,2.38037109375,2.0751953125,2.86865234375
76323,-0.0296630859375,-0.067138671875,0.9932861328125,2.25830078125,2.13623046875,2.86865234375
76332,-0.029296875,-0.066162109375,0.9979248046875,1.953125,2.197265625,2.99072265625
76340,-0.027587890625,-0.0670166015625,1.0003662109375,1.708984375,2.50244140625,2.99072265625
76349,-0.0283203125,-0.064208984375,0.998291015625,1.64794921875,2.3193359375,2.9296875
76357,-0.0281982421875,-0.0670166015625,0.99560546875,2.13623046875,2.197265625,2.9296875
76366,-0.0299072265625,-0.06640625,0.99169921875,2.25830078125,1.953125,2.99072265625
76376,-0.0316162109375,-0.0670166015625,0.9945068359375,2.0751953125,2.13623046875,2.99072265625
76383,-0.02978515625,-0.0670166015625,0.9993896484375,1.708984375,2.3193359375,2.9296875
76392,-0.0284423828125,-0.0650634765625,0.999755859375,1.708984375,2.25830078125,2.74658203125
76400,-0.0284423828125,-0.0657958984375,0.9993896484375,1.89208984375,2.13623046875,2.9296875
76409,-0.0283203125,-0.0660400390625,0.99365234375,1.89208984375,1.953125,2.8076171875
76417,-0.0313720703125,-0.06689453125,0.993896484375,2.0751953125,1.89208984375,2.86865234375
76425,-0.029052734375,-0.0677490234375,0.9967041015625,2.01416015625,2.25830078125,2.8076171875
76434,-0.0299072265625,-0.066162109375,0.99853515625,1.708984375,2.3193359375,2.8076171875
76443,-0.0277099609375,-0.06689453125,0.999267578125,1.8310546875,2.25830078125,2.8076171875
76451,-0.0283203125,-0.0662841796875,0.9969482421875,1.89208984375,2.197265625,2.8076171875
76460,-0.0294189453125,-0.06689453125,0.9945068359375,2.197265625,2.01416015625,2.74658203125
76469,-0.0281982421875,-0.0667724609375,0.9935302734375,2.13623046875,1.953125,2.8076171875
76477,-0.0301513671875,-0.066650390625,0.9969482421875,1.953125,2.0751953125,2.9296875
76486,-0.028564453125,-0.0667724609375,0.9993896484375,1.953125,2.3193359375,2.9296875
76494,-0.0279541015625,-0.0660400390625,0.9989013671875,1.708984375,2.3193359375,2.9296875
76504,-0.0289306640625,-0.065673828125,0.9962158203125,1.953125,2.13623046875,2.86865234375
76511,-0.0289306640625,-0.06689453125,0.9930419921875,2.01416015625,2.197265625,2.74658203125
76520,-0.030517578125,-0.066162109375,0.99365234375,2.0751953125,2.25830078125,2.8076171875
76528,-0.029052734375,-0.0677490234375,0.997314453125,1.8310546875,2.3193359375,2.86865234375
76537,-0.0294189453125,-0.0653076171875,1.0,1.89208984375,2.25830078125,2.9296875
76545,-0.0283203125,-0.0670166015625,0.9986572265625,1.89208984375,2.0751953125,2.86865234375
76554,-0.0291748046875,-0.0660400390625,0.9951171875,1.953125,2.13623046875,2.74658203125
76563,-0.0302734375,-0.06640625,0.99462890625,2.197265625,2.197265625,2.74658203125
76571,-0.0291748046875,-0.067138671875,0.9954833984375,2.0751953125,2.13623046875,2.86865234375
76580,-0.029052734375,-0.0660400390625,0.997314453125,1.8310546875,2.197265625,2.8076171875
76588,-0.02880859375,-0.066650390625,1.000244140625,1.77001953125,2.38037109375,2.685546875
76597,-0.0283203125,-0.0655517578125,0.998046875,2.01416015625,2.13623046875,2.8076171875
76605,-0.029296875,-0.0660400390625,0.9954833984375,2.13623046875,2.01416015625,2.74658203125
76614,-0.029541015625,-0.0670166015625,0.9937744140625,2.13623046875,2.0751953125,2.86865234375
76622,-0.029296875,-0.06640625,0.99609375,1.953125,2.13623046875,2.86865234375
76632,-0.0289306640625,-0.0677490234375,0.99853515625,1.8310546875,2.25830078125,2.8076171875
76639,-0.0272216796875,-0.06591796875,0.998046875,2.01416015625,2.25830078125,2.8076171875
76648,-0.0294189453125,-0.06640625,0.995849609375,2.01416015625,2.01416015625,2.8076171875
76656,-0.029296875,-0.0665283203125,0.994140625,2.01416015625,2.01416015625,2.74658203125
76665,-0.030029296875,-0.0662841796875,0.994384765625,2.0751953125,2.197265625,2.8076171875
76674,-0.0281982421875,-0.066650390625,0.9981689453125,2.01416015625,2.25830078125,2.86865234375
76682,-0.027587890625,-0.0660400390625,0.997802734375,1.89208984375,2.3193359375,2.86865234375
76691,-0.028564453125,-0.0665283203125,0.9967041015625,2.01416015625,2.01416015625,2.9296875
76699,-0.029052734375,-0.06689453125,0.9940185546875,2.25830078125,2.0751953125,2.74658203125
76708,-0.02978515625,-0.06640625,0.9952392578125,2.0751953125,1.89208984375,2.8076171875
76716,-0.0286865234375,-0.0673828125,0.9967041015625,1.953125,2.197265625,2.74658203125
76725,-0.028564453125,-0.066162109375,0.9991455078125,1.77001953125,2.38037109375,2.685546875
76734,-0.0284423828125,-0.06640625,0.9991455078125,1.89208984375,2.197265625,2.74658203125
76742,-0.0283203125,-0.06640625,0.995361328125,2.0751953125,1.953125,2.74658203125
76751,-0.0303955078125,-0.066162109375,0.9951171875,1.89208984375,2.01416015625,2.8076171875
76760,-0.0289306640625,-0.067138671875,0.996826171875,1.953125,2.25830078125,2.8076171875
76768,-0.0283203125,-0.0648193359375,0.9971923828125,1.77001953125,2.25830078125,2.86865234375
76776,-0.028076171875,-0.0665283203125,0.9976806640625,1.77001953125,2.0751953125,2.86865234375
76785,-0.02783203125,-0.0662841796875,0.9962158203125,2.01416015625,2.13623046875,2.9296875
76793,-0.0291748046875,-0.06640625,0.9952392578125,2.01416015625,2.13623046875,2.9296875
76802,-0.029541015625,-0.0675048828125,0.9971923828125,2.13623046875,2.13623046875,3.0517578125
76810,-0.0294189453125,-0.0653076171875,0.9976806640625,1.89208984375,2.13623046875,2.99072265625
76819,-0.0286865234375,-0.06640625,0.9984130859375,1.953125,2.0751953125,2.8076171875
76827,-0.0281982421875,-0.0662841796875,0.99560546875,1.8310546875,2.3193359375,2.74658203125
76836,-0.02978515625,-0.06591796875,0.995361328125,1.89208984375,2.13623046875,2.685546875
76844,-0.02880859375,-0.0677490234375,0.9967041015625,2.01416015625,2.25830078125,2.8076171875
76853,-0.02978515625,-0.065673828125,0.9974365234375,1.89208984375,2.197265625,3.0517578125
76861,-0.028564453125,-0.0672607421875,0.998046875,2.01416015625,2.25830078125,2.86865234375
76872,-0.0279541015625,-0.0667724609375,0.99609375,2.01416015625,2.25830078125,2.9296875
76878,-0.0303955078125,-0.066650390625,0.99560546875,1.953125,2.0751953125,2.99072265625
76888,-0.0289306640625,-0.06787109375,0.9957275390625,2.25830078125,2.0751953125,2.8076171875
76896,-0.02880859375,-0.0657958984375,0.996826171875,1.89208984375,2.197265625,2.8076171875
76904,-0.029052734375,-0.06689453125,0.99951171875,1.89208984375,2.13623046875,2.9296875
76913,-0.0279541015625,-0.0660400390625,0.9969482421875,1.89208984375,2.13623046875,2.9296875
76922,-0.029296875,-0.0654296875,0.993896484375,2.01416015625,1.89208984375,2.9296875
76930,-0.029541015625,-0.0682373046875,0.9959716796875,2.0751953125,2.01416015625,2.9296875
76939,-0.02978515625,-0.066650390625,0.9951171875,2.0751953125,2.13623046875,2.86865234375
76947,-0.028564453125,-0.0670166015625,0.9991455078125,1.89208984375,2.3193359375,2.8076171875
76955,-0.02783203125,-0.066162109375,0.9979248046875,1.8310546875,2.25830078125,2.86865234375
76964,-0.02978515625,-0.06591796875,0.9964599609375,1.89208984375,2.197265625,2.9296875
76973,-0.029052734375,-0.0670166015625,0.99560546875,2.197265625,2.13623046875,2.8076171875
76981,-0.030029296875,-0.0660400390625,0.9935302734375,2.01416015625,1.89208984375,2.86865234375
76990,-0.02978515625,-0.0682373046875,0.9970703125,2.01416015625,2.13623046875,2.9296875
76998,-0.0286865234375,-0.0673828125,0.998779296875,2.01416015625,2.25830078125,2.9296875
77007,-0.02880859375,-0.064697265625,0.998046875,1.77001953125,1.953125,2.86865234375
77016,-0.029052734375,-0.0673828125,0.99609375,1.8310546875,1.953125,2.86865234375
77024,-0.030029296875,-0.0657958984375,0.994873046875,1.953125,1.8310546875,2.9296875
77032,-0.0306396484375,-0.06689453125,0.995849609375,1.953125,2.01416015625,2.86865234375
77041,-0.0296630859375,-0.0672607421875,0.997314453125,1.89208984375,2.0751953125,2.8076171875
77049,-0.030029296875,-0.0657958984375,0.9984130859375,1.89208984375,2.0751953125,2.8076171875
77058,-0.0289306640625,-0.065673828125,0.998046875,1.953125,2.13623046875,2.685546875
77067,-0.0284423828125,-0.06591796875,0.9959716796875,1.953125,2.0751953125,2.8076171875
77075,-0.029541015625,-0.06591796875,0.9954833984375,2.01416015625,1.953125,2.685546875
77084,-0.0283203125,-0.067138671875,0.9952392578125,1.953125,2.01416015625,2.86865234375
77092,-0.029296875,-0.0660400390625,0.9967041015625,1.8310546875,2.13623046875,2.74658203125
77100,-0.029541015625,-0.06689453125,1.0001220703125,1.8310546875,2.3193359375,2.9296875
77109,-0.0284423828125,-0.0654296875,0.998046875,1.708984375,2.25830078125,2.8076171875
77118,-0.0289306640625,-0.0665283203125,0.995849609375,1.89208984375,2.197265625,2.74658203125
77128,-0.0286865234375,-0.066162109375,0.9932861328125,2.13623046875,2.13623046875,2.99072265625
77135,-0.0308837890625,-0.0667724609375,0.9945068359375,2.13623046875,2.0751953125,2.8076171875
77144,-0.0291748046875,-0.0679931640625,0.9991455078125,2.01416015625,2.197265625,2.8076171875
77152,-0.028564453125,-0.065185546875,0.9998779296875,1.77001953125,2.3193359375,2.8076171875
77160,-0.0281982421875,-0.0654296875,0.9986572265625,2.0751953125,2.13623046875,2.8076171875
77169,-0.0284423828125,-0.0657958984375,0.9940185546875,2.25830078125,1.89208984375,2.8076171875
77178,-0.0302734375,-0.0673828125,0.993408203125,2.13623046875,1.953125,2.8076171875
77186,-0.0294189453125,-0.068115234375,0.997314453125,2.01416015625,2.13623046875,2.8076171875
77195,-0.0279541015625,-0.065185546875,1.0,1.5869140625,2.197265625,2.74658203125
77203,-0.0286865234375,-0.0648193359375,0.998291015625,1.708984375,2.25830078125,2.86865234375
77212,-0.028564453125,-0.0679931640625,0.9945068359375,2.13623046875,2.197265625,2.86865234375
77220,-0.0306396484375,-0.0670166015625,0.9923095703125,2.13623046875,1.8310546875,2.74658203125
77229,-0.030029296875,-0.0679931640625,0.99658203125,2.01416015625,2.13623046875,2.86865234375
77237,-0.028564453125,-0.0654296875,0.9990234375,1.89208984375,2.197265625,2.9296875
77246,-0.028564453125,-0.06494140625,0.9996337890625,1.8310546875,2.197265625,2.8076171875
77256,-0.0283203125,-0.067138671875,0.9971923828125,2.13623046875,2.13623046875,2.8076171875
77263,-0.028564453125,-0.0662841796875,0.9949951171875,2.13623046875,1.89208984375,2.9296875
77272,-0.0296630859375,-0.0672607421875,0.9959716796875,2.0751953125,2.13623046875,2.9296875
77280,-0.0294189453125,-0.066162109375,0.996337890625,1.77001953125,2.13623046875,3.0517578125
77289,-0.02880859375,-0.0662841796875,0.9990234375,1.708984375,2.13623046875,2.99072265625
77297,-0.0289306640625,-0.06640625,0.998779296875,1.89208984375,2.01416015625,2.74658203125
77306,-0.0284423828125,-0.0655517578125,0.99609375,1.89208984375,2.01416015625,2.8076171875
77314,-0.02978515625,-0.06689453125,0.9949951171875,2.0751953125,2.13623046875,2.9296875
77323,-0.0291748046875,-0.0670166015625,0.994873046875,2.01416015625,2.197265625,2.9296875
77332,-0.0303955078125,-0.0665283203125,0.997802734375,1.77001953125,2.197265625,2.99072265625
77340,-0.0291748046875,-0.0677490234375,0.9986572265625,1.708984375,2.197265625,2.8076171875
77349,-0.0284423828125,-0.0650634765625,0.9970703125,1.953125,1.89208984375,2.86865234375
77357,-0.0294189453125,-0.06640625,0.9949951171875,2.01416015625,1.89208984375,2.8076171875
77366,-0.0286865234375,-0.0673828125,0.9954833984375,2.01416015625,2.0751953125,2.86865234375
77374,-0.0296630859375,-0.0673828125,0.995849609375,1.89208984375,2.13623046875,2.74658203125
77384,-0.0283203125,-0.0673828125,0.9996337890625,1.77001953125,2.25830078125,2.685546875
77391,-0.02783203125,-0.064697265625,0.9979248046875,1.708984375,2.3193359375,2.86865234375
77400,-0.029052734375,-0.0655517578125,0.99658203125,2.0751953125,1.89208984375,2.74658203125
77408,-0.0301513671875,-0.067626953125,0.995361328125,2.13623046875,1.953125,2.74658203125
77417,-0.0301513671875,-0.066162109375,0.9954833984375,1.953125,2.0751953125,2.86865234375
77425,-0.029296875,-0.067626953125,0.997802734375,1.953125,2.197265625,2.86865234375
77434,-0.028564453125,-0.0665283203125,0.99755859375,1.8310546875,2.197265625,2.86865234375
77442,-0.0284423828125,-0.0653076171875,0.996826171875,2.0751953125,2.13623046875,2.74658203125
77451,-0.029052734375,-0.0667724609375,0.996826171875,2.0751953125,2.197265625,2.8076171875
77459,-0.02978515625,-0.0660400390625,0.99658203125,2.01416015625,2.197265625,2.9296875
77468,-0.0294189453125,-0.066162109375,0.996826171875,1.953125,2.0751953125,2.99072265625
77477,-0.0289306640625,-0.065673828125,0.998046875,1.953125,2.13623046875,2.86865234375
77485,-0.02880859375,-0.0665283203125,0.9979248046875,1.77001953125,2.13623046875,2.9296875
77494,-0.02783203125,-0.067138671875,0.99755859375,1.89208984375,2.13623046875,2.685546875
77502,-0.030029296875,-0.0650634765625,0.9951171875,1.89208984375,2.197265625,2.74658203125
77512,-0.0296630859375,-0.06689453125,0.99609375,1.89208984375,2.13623046875,2.9296875
77519,-0.029541015625,-0.067138671875,0.9954833984375,1.89208984375,2.197265625,2.8076171875
77528,-0.029541015625,-0.0662841796875,0.9974365234375,1.8310546875,2.197265625,2.86865234375
77536,-0.029052734375,-0.066650390625,0.998291015625,1.89208984375,2.25830078125,2.8076171875
77545,-0.02880859375,-0.06591796875,0.996826171875,1.89208984375,2.197265625,2.8076171875
77553,-0.02880859375,-0.06640625,0.9949951171875,2.0751953125,2.197265625,2.8076171875
77562,-0.0296630859375,-0.0672607421875,0.9969482421875,1.953125,2.01416015625,2.9296875
77570,-0.028564453125,-0.066650390625,0.9959716796875,1.8310546875,2.0751953125,2.9296875
77579,-0.028564453125,-0.06689453125,0.9993896484375,1.89208984375,2.25830078125,2.99072265625
77588,-0.0294189453125,-0.0657958984375,0.9970703125,1.953125,2.0751953125,3.0517578125
77596,-0.0302734375,-0.066162109375,0.9964599609375,1.89208984375,1.953125,2.86865234375
77605,-0.02880859375,-0.0679931640625,0.996337890625,1.953125,2.01416015625,2.74658203125
77613,-0.0286865234375,-0.0655517578125,0.99560546875,1.89208984375,2.13623046875,2.8076171875
77624,-0.0283203125,-0.066650390625,0.9986572265625,1.89208984375,2.197265625,2.9296875
77630,-0.028564453125,-0.0672607421875,0.998291015625,1.8310546875,2.13623046875,2.74658203125
77640,-0.0283203125,-0.0654296875,0.99609375,1.953125,2.01416015625,2.86865234375
77648,-0.02880859375,-0.066162109375,0.9954833984375,2.0751953125,1.77001953125,2.9296875
77656,-0.02880859375,-0.0660400390625,0.99609375,1.77001953125,2.01416015625,2.86865234375
77665,-0.029541015625,-0.0670166015625,0.9986572265625,1.8310546875,2.13623046875,2.9296875
77673,-0.02880859375,-0.0665283203125,0.997314453125,2.0751953125,2.197265625,2.9296875
77682,-0.029541015625,-0.0657958984375,0.99560546875,2.13623046875,2.25830078125,2.86865234375
77690,-0.0289306640625,-0.0677490234375,0.994873046875,2.0751953125,2.13623046875,2.8076171875
77699,-0.029052734375,-0.0667724609375,0.9959716796875,2.0751953125,1.953125,2.86865234375
77707,-0.0289306640625,-0.066650390625,0.9981689453125,1.953125,2.13623046875,2.9296875
77716,-0.0279541015625,-0.0662841796875,0.9981689453125,1.89208984375,2.13623046875,2.86865234375
77724,-0.028076171875,-0.065185546875,0.996337890625,1.953125,2.0751953125,2.86865234375
77733,-0.02978515625,-0.0673828125,0.99462890625,2.0751953125,2.0751953125,2.685546875
77742,-0.029296875,-0.067138671875,0.9935302734375,2.01416015625,2.13623046875,2.86865234375
77750,-0.0296630859375,-0.066650390625,0.9974365234375,1.708984375,2.25830078125,2.86865234375
77759,-0.0283203125,-0.0665283203125,0.9986572265625,1.708984375,2.25830078125,2.86865234375
77768,-0.0289306640625,-0.06494140625,0.998291015625,1.8310546875,2.01416015625,2.8076171875
77776,-0.028564453125,-0.0672607421875,0.9954833984375,2.13623046875,2.01416015625,2.86865234375
77784,-0.0296630859375,-0.06640625,0.9930419921875,2.197265625,2.0751953125,2.86865234375
77792,-0.030029296875,-0.0667724609375,0.996337890625,2.01416015625,2.01416015625,2.86865234375
77801,-0.028564453125,-0.0670166015625,0.9991455078125,1.953125,2.13623046875,2.8076171875
77810,-0.02880859375,-0.0645751953125,0.998291015625,1.77001953125,2.0751953125,2.86865234375
77818,-0.0291748046875,-0.0670166015625,0.998291015625,1.89208984375,2.0751953125,2.86865234375
77827,-0.02880859375,-0.066162109375,0.995849609375,2.13623046875,2.197265625,2.8076171875
77835,-0.0302734375,-0.067138671875,0.9945068359375,2.01416015625,2.0751953125,2.9296875
77844,-0.030029296875,-0.0673828125,0.995849609375,2.01416015625,2.25830078125,2.9296875
77853,-0.0291748046875,-0.0660400390625,0.9981689453125,1.89208984375,2.3193359375,2.8076171875
77861,-0.0281982421875,-0.066650390625,0.9996337890625,1.89208984375,2.25830078125,2.86865234375
77870,-0.028076171875,-0.0655517578125,0.99658203125,1.77001953125,2.13623046875,3.0517578125
77880,-0.029296875,-0.06640625,0.9947509765625,1.89208984375,1.89208984375,2.9296875
77887,-0.02880859375,-0.0679931640625,0.9949951171875,2.13623046875,2.13623046875,2.9296875
77896,-0.0291748046875,-0.0655517578125,0.997314453125,1.89208984375,2.197265625,2.9296875
77904,-0.0283203125,-0.066650390625,0.9993896484375,1.8310546875,2.25830078125,2.86865234375
77912,-0.0281982421875,-0.0650634765625,0.9970703125,1.953125,2.13623046875,2.9296875
77921,-0.0291748046875,-0.0654296875,0.9959716796875,1.953125,1.89208984375,2.99072265625
77929,-0.0289306640625,-0.06787109375,0.9947509765625,2.01416015625,2.0751953125,2.9296875
77938,-0.029052734375,-0.0665283203125,0.9957275390625,2.01416015625,2.197265625,2.74658203125
77947,-0.029296875,-0.0665283203125,0.998046875,2.01416015625,2.197265625,2.74658203125
77955,-0.029052734375,-0.0660400390625,0.99853515625,1.953125,2.3193359375,2.8076171875
77964,-0.02880859375,-0.0654296875,0.99755859375,2.01416015625,2.13623046875,2.9296875
77972,-0.028564453125,-0.06689453125,0.9962158203125,2.0751953125,2.01416015625,2.86865234375
77981,-0.0294189453125,-0.0654296875,0.9931640625,2.13623046875,2.197265625,2.86865234375
77989,-0.029052734375,-0.0682373046875,0.99658203125,2.13623046875,2.13623046875,2.9296875
77998,-0.0291748046875,-0.06689453125,0.9974365234375,2.01416015625,2.13623046875,2.9296875
78008,-0.0277099609375,-0.0662841796875,0.99853515625,2.01416015625,2.25830078125,2.86865234375
78015,-0.028076171875,-0.0662841796875,0.99658203125,1.953125,2.197265625,2.9296875
78024,-0.028564453125,-0.065673828125,0.9930419921875,2.0751953125,1.953125,2.9296875
78032,-0.02880859375,-0.067626953125,0.994873046875,2.01416015625,2.01416015625,2.99072265625
78041,-0.0299072265625,-0.06640625,0.9962158203125,1.953125,2.25830078125,2.74658203125
78049,-0.028564453125,-0.06591796875,0.99951171875,1.77001953125,2.3193359375,2.8076171875
78058,-0.0279541015625,-0.0660400390625,0.9979248046875,1.77001953125,2.25830078125,2.74658203125
78066,-0.02978515625,-0.0660400390625,0.994873046875,1.89208984375,2.197265625,2.86865234375
78074,-0.029296875,-0.067626953125,0.995361328125,2.01416015625,1.953125,2.86865234375
78083,-0.0291748046875,-0.0670166015625,0.995361328125,1.8310546875,2.0751953125,2.99072265625
78092,-0.0299072265625,-0.06591796875,0.9989013671875,1.89208984375,2.197265625,2.9296875
78101,-0.02783203125,-0.0665283203125,0.9996337890625,1.8310546875,2.25830078125,3.11279296875
78109,-0.0289306640625,-0.0650634765625,0.9974365234375,1.953125,2.13623046875,3.0517578125
78118,-0.029296875,-0.06640625,0.9947509765625,2.197265625,2.0751953125,2.99072265625
78126,-0.02880859375,-0.06640625,0.996337890625,2.0751953125,2.197265625,2.86865234375
78136,-0.029052734375,-0.066650390625,0.9970703125,1.8310546875,2.197265625,2.86865234375
78143,-0.029541015625,-0.0667724609375,0.9984130859375,1.708984375,2.38037109375,2.86865234375
78152,-0.02978515625,-0.0645751953125,0.996826171875,1.89208984375,2.13623046875,2.8076171875
78160,-0.029541015625,-0.066650390625,0.9962158203125,2.13623046875,1.953125,2.9296875
78169,-0.0302734375,-0.0665283203125,0.9949951171875,2.0751953125,2.0751953125,2.9296875
78177,-0.029541015625,-0.0672607421875,0.9981689453125,1.8310546875,2.25830078125,2.8076171875
78186,-0.02880859375,-0.0660400390625,0.999755859375,1.708984375,2.44140625,2.86865234375
78194,-0.0294189453125,-0.064697265625,0.998046875,1.708984375,2.0751953125,2.9296875
78203,-0.028564453125,-0.067138671875,0.995849609375,1.953125,2.0751953125,2.86865234375
78211,-0.029052734375,-0.06640625,0.993408203125,2.13623046875,2.197265625,2.86865234375
78220,-0.0302734375,-0.0682373046875,0.9967041015625,2.0751953125,2.197265625,2.86865234375
78228,-0.029296875,-0.06640625,0.9986572265625,1.8310546875,2.50244140625,2.86865234375
78237,-0.0284423828125,-0.064697265625,1.0,1.89208984375,2.25830078125,2.74658203125
78245,-0.0283203125,-0.0675048828125,0.998291015625,1.953125,2.197265625,2.99072265625
78254,-0.0299072265625,-0.0657958984375,0.9935302734375,2.0751953125,2.01416015625,2.99072265625
78264,-0.0302734375,-0.068115234375,0.993896484375,2.01416015625,2.0751953125,2.86865234375
78271,-0.030029296875,-0.0670166015625,0.9959716796875,1.953125,2.3193359375,2.9296875
78280,-0.0289306640625,-0.06640625,0.9981689453125,1.77001953125,2.25830078125,2.9296875
78289,-0.0283203125,-0.0657958984375,0.9984130859375,2.01416015625,2.38037109375,2.99072265625
78297,-0.0294189453125,-0.06591796875,0.99658203125,2.0751953125,1.953125,2.9296875
78306,-0.0299072265625,-0.067626953125,0.994873046875,2.01416015625,2.0751953125,2.74658203125
78314,-0.0296630859375,-0.06689453125,0.9962158203125,1.953125,2.13623046875,2.8076171875
78323,-0.030517578125,-0.0657958984375,0.9967041015625,1.953125,2.0751953125,2.74658203125
78331,-0.028076171875,-0.067138671875,0.9976806640625,2.0751953125,2.197265625,2.9296875
78339,-0.0296630859375,-0.0653076171875,0.99658203125,2.0751953125,2.13623046875,2.86865234375
78348,-0.029052734375,-0.0672607421875,0.99609375,1.953125,2.25830078125,2.685546875
78356,-0.029296875,-0.0665283203125,0.995849609375,1.89208984375,2.197265625,2.74658203125
78365,-0.0301513671875,-0.066162109375,0.9976806640625,1.89208984375,2.3193359375,2.8076171875
78374,-0.0291748046875,-0.06689453125,0.998779296875,2.01416015625,2.25830078125,2.8076171875
78382,-0.02880859375,-0.0655517578125,0.99609375,1.89208984375,2.25830078125,2.685546875
78392,-0.03076171875,-0.068603515625,0.996826171875,2.01416015625,2.0751953125,2.8076171875
78400,-0.030517578125,-0.06787109375,0.9951171875,2.0751953125,2.0751953125,2.8076171875
78408,-0.0303955078125,-0.0673828125,0.9974365234375,1.89208984375,2.13623046875,2.86865234375
78417,-0.028076171875,-0.0662841796875,0.9990234375,1.77001953125,2.13623046875,2.86865234375
78425,-0.0291748046875,-0.0648193359375,0.9990234375,1.89208984375,2.3193359375,2.9296875
78434,-0.0283203125,-0.0667724609375,0.9962158203125,2.0751953125,2.13623046875,2.8076171875
78442,-0.0291748046875,-0.06640625,0.993896484375,2.01416015625,1.953125,2.86865234375
78451,-0.03076171875,-0.066650390625,0.9949951171875,2.01416015625,2.0751953125,2.86865234375
78459,-0.02978515625,-0.066162109375,0.9990234375,1.89208984375,2.197265625,2.8076171875
78468,-0.030517578125,-0.06494140625,0.998779296875,1.89208984375,2.25830078125,2.86865234375
78476,-0.0284423828125,-0.06689453125,0.9976806640625,1.89208984375,2.25830078125,2.8076171875
78485,-0.0291748046875,-0.067138671875,0.994873046875,1.953125,2.01416015625,2.86865234375
78493,-0.030029296875,-0.0672607421875,0.9947509765625,2.0751953125,1.64794921875,2.86865234375
78504,-0.0289306640625,-0.0675048828125,0.9964599609375,1.8310546875,1.953125,2.74658203125
78510,-0.0294189453125,-0.06591796875,0.9990234375,1.89208984375,2.25830078125,2.74658203125
78520,-0.02734375,-0.0662841796875,0.9998779296875,1.77001953125,2.25830078125,2.8076171875
78527,-0.028076171875,-0.0650634765625,0.995849609375,1.89208984375,2.01416015625,2.9296875
78536,-0.028564453125,-0.0662841796875,0.99462890625,2.01416015625,2.01416015625,2.74658203125
78545,-0.030517578125,-0.0670166015625,0.993896484375,1.89208984375,2.197265625,2.8076171875
78553,-0.029296875,-0.06591796875,0.99755859375,1.8310546875,2.3193359375,2.86865234375
78562,-0.0279541015625,-0.0667724609375,1.0003662109375,1.8310546875,2.38037109375,2.99072265625
78570,-0.0279541015625,-0.0654296875,0.998779296875,1.77001953125,2.3193359375,2.86865234375
78579,-0.0286865234375,-0.0662841796875,0.995849609375,1.953125,2.0751953125,2.74658203125
78587,-0.029052734375,-0.066162109375,0.9930419921875,2.13623046875,2.13623046875,2.86865234375
78596,-0.030029296875,-0.06689453125,0.9952392578125,1.953125,2.13623046875,2.8076171875
78604,-0.0289306640625,-0.0672607421875,0.998779296875,1.8310546875,2.38037109375,2.86865234375
78613,-0.0281982421875,-0.0655517578125,0.9981689453125,1.89208984375,2.38037109375,2.74658203125
78621,-0.0283203125,-0.0665283203125,0.997802734375,1.89208984375,2.3193359375,2.74658203125
78632,-0.0284423828125,-0.066162109375,0.993408203125,2.01416015625,2.197265625,2.86865234375
78639,-0.0299072265625,-0.067138671875,0.994873046875,2.01416015625,2.197265625,2.9296875
78648,-0.029052734375,-0.0675048828125,0.9974365234375,1.89208984375,2.13623046875,2.8076171875
78656,-0.0289306640625,-0.0655517578125,0.9993896484375,1.5869140625,2.13623046875,2.74658203125
78665,-0.02783203125,-0.0660400390625,0.99951171875,1.77001953125,2.25830078125,2.99072265625
78673,-0.027587890625,-0.06591796875,0.99560546875,2.13623046875,2.01416015625,2.9296875
78682,-0.029541015625,-0.066650390625,0.994140625,2.0751953125,1.89208984375,2.8076171875
78690,-0.029052734375,-0.067626953125,0.9954833984375,2.01416015625,2.0751953125,2.8076171875
78699,-0.029541015625,-0.0657958984375,0.9990234375,1.8310546875,2.197265625,2.86865234375
78707,-0.0279541015625,-0.0667724609375,0.9991455078125,1.953125,2.197265625,2.9296875
78715,-0.028076171875,-0.065673828125,0.9974365234375,2.01416015625,2.25830078125,2.8076171875
78724,-0.028564453125,-0.066162109375,0.995361328125,2.197265625,2.0751953125,2.62451171875
78733,-0.0286865234375,-0.067138671875,0.9927978515625,2.13623046875,2.01416015625,2.74658203125
78741,-0.02978515625,-0.0665283203125,0.9954833984375,1.89208984375,2.0751953125,2.74658203125
78750,-0.0284423828125,-0.06689453125,0.9996337890625,1.8310546875,2.25830078125,2.9296875
78760,-0.02880859375,-0.065185546875,0.9984130859375,1.708984375,2.13623046875,2.9296875
78767,-0.02880859375,-0.06591796875,0.99658203125,2.13623046875,2.197265625,2.8076171875
78776,-0.028564453125,-0.0655517578125,0.994873046875,2.197265625,2.0751953125,2.9296875
78784,-0.0303955078125,-0.06640625,0.994384765625,2.0751953125,2.01416015625,2.9296875
78793,-0.0289306640625,-0.0677490234375,0.995849609375,2.01416015625,2.25830078125,2.86865234375
78801,-0.0294189453125,-0.0660400390625,0.99853515625,1.77001953125,2.197265625,2.86865234375
78809,-0.0283203125,-0.0662841796875,0.9993896484375,1.89208984375,2.197265625,2.86865234375
78818,-0.0289306640625,-0.0653076171875,0.996337890625,2.0751953125,2.38037109375,2.86865234375
78826,-0.0299072265625,-0.066650390625,0.993408203125,2.01416015625,2.0751953125,2.8076171875
78835,-0.0296630859375,-0.0675048828125,0.993896484375,2.13623046875,2.0751953125,2.9296875
78844,-0.028564453125,-0.0662841796875,0.997314453125,2.01416015625,2.13623046875,2.8076171875
78852,-0.0281982421875,-0.0670166015625,0.9993896484375,1.89208984375,2.3193359375,2.86865234375
78861,-0.0279541015625,-0.066162109375,0.998291015625,1.953125,2.3193359375,2.9296875
78870,-0.028564453125,-0.0665283203125,0.99560546875,1.89208984375,2.13623046875,2.8076171875
78878,-0.0294189453125,-0.0665283203125,0.994140625,2.01416015625,2.0751953125,2.8076171875
78888,-0.0299072265625,-0.06591796875,0.9949951171875,2.0751953125,2.13623046875,2.8076171875
78895,-0.0286865234375,-0.068115234375,0.996826171875,1.8310546875,2.13623046875,2.9296875
78904,-0.029296875,-0.06640625,0.9990234375,1.64794921875,2.0751953125,3.0517578125
78912,-0.02880859375,-0.066650390625,0.998046875,1.77001953125,2.13623046875,2.74658203125
78920,-0.0294189453125,-0.0662841796875,0.995361328125,2.01416015625,2.13623046875,2.86865234375
78929,-0.0302734375,-0.066650390625,0.9942626953125,2.13623046875,2.01416015625,2.685546875
78938,-0.029296875,-0.0677490234375,0.9970703125,1.953125,2.13623046875,2.9296875
78946,-0.0299072265625,-0.0662841796875,0.9981689453125,1.708984375,2.197265625,2.9296875
78955,-0.027587890625,-0.066162109375,0.9976806640625,1.8310546875,2.13623046875,2.9296875
78964,-0.0286865234375,-0.0662841796875,0.9945068359375,1.953125,2.01416015625,2.9296875
78972,-0.029052734375,-0.0677490234375,0.9949951171875,2.0751953125,1.89208984375,2.9296875
78981,-0.0286865234375,-0.068115234375,0.9959716796875,2.0751953125,2.0751953125,2.86865234375
78989,-0.0301513671875,-0.066162109375,0.997802734375,1.8310546875,2.13623046875,2.8076171875
78998,-0.0286865234375,-0.065673828125,0.9996337890625,1.77001953125,2.25830078125,2.74658203125
79006,-0.02783203125,-0.065185546875,0.99609375,2.13623046875,1.953125,2.86865234375
79016,-0.02978515625,-0.0667724609375,0.9954833984375,1.953125,2.0751953125,2.86865234375
79023,-0.029052734375,-0.067626953125,0.9954833984375,1.8310546875,2.01416015625,2.9296875
79032,-0.029052734375,-0.0657958984375,0.9976806640625,1.708984375,2.44140625,2.86865234375
79040,-0.0286865234375,-0.0670166015625,1.0,1.64794921875,2.25830078125,2.86865234375
79049,-0.0294189453125,-0.06591796875,0.997314453125,1.708984375,2.38037109375,2.8076171875
79057,-0.029296875,-0.066650390625,0.99609375,1.8310546875,2.13623046875,2.8076171875
79066,-0.0289306640625,-0.0660400390625,0.995361328125,2.13623046875,2.0751953125,2.74658203125
79074,-0.0301513671875,-0.066650390625,0.9962158203125,2.0751953125,2.01416015625,2.86865234375
79083,-0.0281982421875,-0.06787109375,0.9989013671875,1.953125,2.197265625,2.8076171875
79092,-0.029052734375,-0.0645751953125,0.9984130859375,1.77001953125,2.25830078125,2.9296875
79100,-0.0294189453125,-0.0667724609375,0.9969482421875,2.0751953125,2.0751953125,2.99072265625
79109,-0.028564453125,-0.067138671875,0.99609375,2.0751953125,2.0751953125,2.9296875
79117,-0.029052734375,-0.065185546875,0.996337890625,1.89208984375,2.197265625,2.74658203125
79126,-0.0286865234375,-0.066162109375,0.9971923828125,1.953125,2.3193359375,2.99072265625
79134,-0.02880859375,-0.065673828125,0.998291015625,1.89208984375,2.0751953125,2.8076171875
79144,-0.0284423828125,-0.0665283203125,0.9969482421875,1.953125,2.13623046875,2.9296875
79151,-0.030029296875,-0.066162109375,0.9962158203125,1.953125,2.01416015625,2.99072265625
79160,-0.03076171875,-0.067138671875,0.9962158203125,1.8310546875,2.01416015625,2.9296875
79168,-0.02880859375,-0.06689453125,0.9964599609375,1.8310546875,2.25830078125,2.99072265625
79177,-0.02978515625,-0.06494140625,0.9974365234375,1.8310546875,2.25830078125,2.8076171875
79185,-0.0277099609375,-0.0665283203125,0.996826171875,2.01416015625,2.197265625,2.74658203125
79194,-0.028564453125,-0.0662841796875,0.995361328125,2.0751953125,2.0751953125,2.74658203125
79202,-0.0291748046875,-0.0672607421875,0.995849609375,2.0751953125,2.197265625,2.8076171875
79211,-0.029296875,-0.0677490234375,0.996337890625,2.01416015625,2.197265625,2.8076171875
79219,-0.029296875,-0.0653076171875,0.9990234375,1.89208984375,2.197265625,2.86865234375
79228,-0.0286865234375,-0.0660400390625,0.9976806640625,1.89208984375,2.197265625,2.74658203125
79236,-0.029052734375,-0.0654296875,0.996337890625,2.01416015625,2.01416015625,2.86865234375
79245,-0.029296875,-0.067138671875,0.994873046875,2.01416015625,2.0751953125,2.86865234375
79254,-0.0284423828125,-0.067626953125,0.9957275390625,1.953125,2.0751953125,2.8076171875
79262,-0.030029296875,-0.06591796875,0.9979248046875,1.77001953125,2.13623046875,2.9296875
79272,-0.0286865234375,-0.0670166015625,0.9990234375,1.708984375,2.197265625,2.9296875
79279,-0.02880859375,-0.065673828125,0.9979248046875,1.953125,2.13623046875,2.8076171875
79288,-0.0286865234375,-0.06689453125,0.99658203125,1.953125,2.01416015625,2.8076171875
79296,-0.0294189453125,-0.06640625,0.9951171875,1.953125,2.01416015625,2.99072265625
79305,-0.0301513671875,-0.0667724609375,0.99658203125,1.89208984375,2.0751953125,2.99072265625
79314,-0.0283203125,-0.0670166015625,0.99853515625,2.0751953125,2.13623046875,2.99072265625
79322,-0.0299072265625,-0.0662841796875,0.9970703125,1.89208984375,2.3193359375,2.9296875
79331,-0.02880859375,-0.0660400390625,0.9970703125,1.8310546875,2.13623046875,2.86865234375
79339,-0.0291748046875,-0.0653076171875,0.995849609375,1.953125,2.13623046875,2.685546875
79348,-0.0301513671875,-0.0667724609375,0.99560546875,2.01416015625,2.13623046875,2.8076171875
79356,-0.0286865234375,-0.0673828125,0.997314453125,1.953125,2.13623046875,2.9296875
79365,-0.0289306640625,-0.0655517578125,0.9989013671875,1.77001953125,2.13623046875,2.74658203125
79373,-0.02978515625,-0.0673828125,0.9991455078125,1.8310546875,2.0751953125,2.86865234375
79384,-0.029541015625,-0.0662841796875,0.9964599609375,2.01416015625,2.01416015625,2.86865234375
79390,-0.0289306640625,-0.0672607421875,0.994384765625,2.01416015625,1.953125,2.8076171875
79400,-0.0289306640625,-0.0672607421875,0.9954833984375,1.953125,1.953125,2.8076171875
79407,-0.02978515625,-0.0667724609375,0.99755859375,1.953125,2.13623046875,2.74658203125
79416,-0.0281982421875,-0.0679931640625,0.998779296875,1.8310546875,2.197265625,2.9296875
79424,-0.02880859375,-0.0650634765625,0.9970703125,1.89208984375,2.13623046875,2.74658203125
79433,-0.029296875,-0.0660400390625,0.996337890625,2.01416015625,2.13623046875,2.74658203125
79442,-0.028564453125,-0.0662841796875,0.993408203125,2.01416015625,2.197265625,2.9296875
79450,-0.0296630859375,-0.0673828125,0.9957275390625,1.89208984375,2.25830078125,2.8076171875
79459,-0.029052734375,-0.0673828125,0.9990234375,1.953125,2.38037109375,2.9296875
79468,-0.0277099609375,-0.06591796875,0.999755859375,1.708984375,2.38037109375,2.74658203125
79476,-0.028564453125,-0.06591796875,0.9979248046875,1.953125,2.197265625,2.8076171875
79484,-0.0296630859375,-0.066162109375,0.994873046875,2.13623046875,1.953125,2.685546875
79493,-0.03076171875,-0.067138671875,0.9940185546875,2.25830078125,1.953125,2.9296875
79501,-0.030517578125,-0.0673828125,0.9971923828125,1.89208984375,2.13623046875,2.86865234375
79512,-0.029296875,-0.0653076171875,0.9986572265625,1.52587890625,2.197265625,2.86865234375
79518,-0.02783203125,-0.0660400390625,0.999267578125,1.8310546875,2.197265625,2.8076171875
79528,-0.0284423828125,-0.065185546875,0.9957275390625,2.01416015625,2.01416015625,2.62451171875
79536,-0.0302734375,-0.06640625,0.9940185546875,2.13623046875,1.89208984375,2.99072265625
79544,-0.029541015625,-0.067138671875,0.9954833984375,2.01416015625,2.0751953125,2.99072265625
79553,-0.0291748046875,-0.06640625,0.9984130859375,1.89208984375,2.197265625,2.86865234375
79561,-0.0283203125,-0.0662841796875,0.999755859375,1.953125,2.25830078125,2.9296875
79570,-0.029541015625,-0.0653076171875,0.99658203125,2.0751953125,2.197265625,2.86865234375
79578,-0.028564453125,-0.066162109375,0.99462890625,2.01416015625,1.953125,2.8076171875
79587,-0.030029296875,-0.06640625,0.9945068359375,1.953125,2.01416015625,2.8076171875
79595,-0.0302734375,-0.0665283203125,0.9970703125,1.89208984375,2.13623046875,2.9296875
79604,-0.0284423828125,-0.06640625,0.9976806640625,2.01416015625,2.25830078125,2.99072265625
79612,-0.0289306640625,-0.0654296875,0.9990234375,1.953125,2.197265625,2.5634765625
79621,-0.0286865234375,-0.066650390625,0.996826171875,2.0751953125,2.0751953125,2.685546875
79630,-0.029296875,-0.06640625,0.99462890625,1.953125,2.01416015625,2.8076171875
79640,-0.030517578125,-0.0670166015625,0.99560546875,1.953125,2.0751953125,2.8076171875
79647,-0.0286865234375,-0.066162109375,0.9974365234375,1.953125,2.0751953125,2.9296875
79656,-0.029052734375,-0.0660400390625,0.9969482421875,1.8310546875,2.197265625,2.685546875
79664,-0.028076171875,-0.0672607421875,0.996826171875,2.0751953125,2.13623046875,2.74658203125
79672,-0.0291748046875,-0.0665283203125,0.9937744140625,1.953125,2.01416015625,2.74658203125
79681,-0.0289306640625,-0.06689453125,0.9947509765625,2.197265625,2.01416015625,2.74658203125
79690,-0.0291748046875,-0.0667724609375,0.996826171875,1.953125,2.25830078125,2.99072265625
79698,-0.0291748046875,-0.065673828125,0.99853515625,1.89208984375,2.0751953125,2.99072265625
79707,-0.0283203125,-0.066650390625,0.996826171875,2.13623046875,2.0751953125,2.9296875
79715,-0.0291748046875,-0.0662841796875,0.9964599609375,1.89208984375,1.89208984375,2.86865234375
79724,-0.0301513671875,-0.0677490234375,0.9959716796875,2.0751953125,1.953125,2.685546875
79732,-0.0301513671875,-0.066650390625,0.99609375,1.64794921875,1.89208984375,2.74658203125
79741,-0.029052734375,-0.0655517578125,0.9976806640625,1.708984375,1.8310546875,2.8076171875
79750,-0.0283203125,-0.0662841796875,0.997314453125,1.8310546875,2.01416015625,2.9296875
79758,-0.029296875,-0.065673828125,0.9957275390625,1.8310546875,1.89208984375,2.86865234375
79768,-0.029296875,-0.0672607421875,0.9952392578125,2.0751953125,2.01416015625,2.8076171875
79775,-0.028564453125,-0.06640625,0.9954833984375,1.953125,2.0751953125,2.685546875
79784,-0.0289306640625,-0.06591796875,0.9969482421875,1.89208984375,2.197265625,2.74658203125
79792,-0.029052734375,-0.0673828125,0.997802734375,1.89208984375,2.25830078125,2.86865234375
79801,-0.0302734375,-0.0653076171875,0.9969482421875,1.8310546875,2.0751953125,2.8076171875
79809,-0.0299072265625,-0.0665283203125,0.9970703125,1.77001953125,2.0751953125,2.9296875
79818,-0.028564453125,-0.0662841796875,0.996337890625,1.77001953125,2.01416015625,2.86865234375
79826,-0.0299072265625,-0.0655517578125,0.9971923828125,1.8310546875,2.0751953125,2.685546875
79835,-0.0286865234375,-0.066650390625,0.9970703125,2.0751953125,2.13623046875,2.8076171875
79843,-0.0302734375,-0.0650634765625,0.9964599609375,2.01416015625,1.953125,2.74658203125
79852,-0.029052734375,-0.0673828125,0.9959716796875,2.01416015625,1.953125,2.86865234375
79860,-0.02880859375,-0.0673828125,0.9949951171875,2.01416015625,2.01416015625,2.8076171875
79869,-0.029052734375,-0.0670166015625,0.9976806640625,2.01416015625,2.0751953125,2.685546875
79877,-0.028076171875,-0.066162109375,0.9974365234375,1.8310546875,2.197265625,2.86865234375
79886,-0.0284423828125,-0.0653076171875,0.9969482421875,1.8310546875,1.953125,2.9296875
79896,-0.0284423828125,-0.0672607421875,0.995361328125,1.953125,2.13623046875,2.99072265625
79903,-0.028564453125,-0.066650390625,0.9945068359375,1.953125,2.0751953125,2.8076171875
79912,-0.02978515625,-0.066650390625,0.99609375,1.953125,2.01416015625,2.86865234375
79920,-0.0281982421875,-0.0673828125,0.998046875,1.89208984375,2.0751953125,2.86865234375
79929,-0.029052734375,-0.0643310546875,0.9969482421875,1.8310546875,2.01416015625,2.62451171875
79937,-0.0281982421875,-0.06689453125,0.997314453125,2.01416015625,2.0751953125,2.685546875
79946,-0.0289306640625,-0.06640625,0.9957275390625,1.89208984375,2.13623046875,2.74658203125
79954,-0.0291748046875,-0.0670166015625,0.993896484375,1.953125,2.01416015625,2.8076171875
79963,-0.0281982421875,-0.068115234375,0.997314453125,1.953125,2.0751953125,2.8076171875
79971,-0.0302734375,-0.065673828125,0.9976806640625,2.01416015625,2.197265625,2.8076171875
79980,-0.029296875,-0.06689453125,0.9979248046875,1.953125,2.13623046875,2.685546875
79988,-0.0277099609375,-0.0653076171875,0.99609375,1.77001953125,2.0751953125,2.8076171875
79997,-0.028564453125,-0.066162109375,0.9959716796875,1.8310546875,1.953125,2.8076171875
80005,-0.0286865234375,-0.068115234375,0.994140625,1.953125,2.197265625,2.86865234375
80014,-0.02978515625,-0.065185546875,0.9969482421875,2.01416015625,2.25830078125,2.86865234375
80024,-0.0286865234375,-0.0673828125,0.998291015625,2.0751953125,2.25830078125,2.74658203125
80031,-0.0279541015625,-0.065673828125,0.997802734375,1.77001953125,2.197265625,2.74658203125
80040,-0.029541015625,-0.065673828125,0.9967041015625,1.89208984375,2.197265625,2.74658203125
80048,-0.0286865234375,-0.0670166015625,0.99365234375,2.13623046875,1.953125,2.9296875
80057,-0.029541015625,-0.06591796875,0.99365234375,1.953125,2.0751953125,2.86865234375
80065,-0.0291748046875,-0.0675048828125,0.9974365234375,1.953125,2.13623046875,2.8076171875
80074,-0.028564453125,-0.0655517578125,0.9979248046875,1.77001953125,2.3193359375,2.685546875
80082,-0.030029296875,-0.06591796875,0.9969482421875,1.89208984375,2.13623046875,2.685546875
80091,-0.0291748046875,-0.06689453125,0.9957275390625,2.0751953125,2.0751953125,2.86865234375
80099,-0.0286865234375,-0.065673828125,0.993896484375,2.01416015625,2.01416015625,2.9296875
80108,-0.0291748046875,-0.067626953125,0.9951171875,1.89208984375,2.0751953125,2.8076171875
80117,-0.0291748046875,-0.066650390625,0.9969482421875,1.8310546875,2.197265625,2.9296875
80125,-0.0294189453125,-0.06591796875,0.9981689453125,1.8310546875,2.197265625,2.86865234375
80136,-0.02880859375,-0.06640625,0.99755859375,1.953125,2.13623046875,2.8076171875
80142,-0.029052734375,-0.0654296875,0.9940185546875,1.89208984375,2.01416015625,2.9296875
80152,-0.028564453125,-0.0675048828125,0.99609375,2.0751953125,2.01416015625,2.86865234375
80159,-0.028564453125,-0.0670166015625,0.9969482421875,2.01416015625,2.13623046875,2.8076171875
80168,-0.029296875,-0.0675048828125,0.9976806640625,1.77001953125,2.197265625,2.86865234375
80176,-0.0283203125,-0.0670166015625,0.9981689453125,1.953125,2.13623046875,2.9296875
80185,-0.0301513671875,-0.06494140625,0.9959716796875,1.953125,2.13623046875,2.99072265625
80194,-0.0296630859375,-0.0662841796875,0.995361328125,2.13623046875,2.0751953125,2.86865234375
80202,-0.029296875,-0.0667724609375,0.995849609375,2.0751953125,2.0751953125,2.8076171875
80211,-0.0294189453125,-0.06591796875,0.9979248046875,1.89208984375,2.01416015625,2.99072265625
80219,-0.02783203125,-0.0670166015625,0.99951171875,1.8310546875,2.25830078125,2.86865234375
80228,-0.0279541015625,-0.065673828125,0.99658203125,2.01416015625,2.13623046875,2.8076171875
80236,-0.02978515625,-0.0673828125,0.994873046875,2.13623046875,2.0751953125,2.8076171875
80245,-0.0289306640625,-0.06787109375,0.993408203125,1.953125,2.0751953125,2.86865234375
80253,-0.0299072265625,-0.0673828125,0.99658203125,1.8310546875,2.13623046875,2.9296875
80262,-0.028076171875,-0.0682373046875,0.9996337890625,1.77001953125,2.3193359375,2.9296875
80271,-0.0286865234375,-0.0650634765625,0.9967041015625,1.8310546875,2.13623046875,2.86865234375
80280,-0.0286865234375,-0.06689453125,0.9967041015625,1.953125,2.13623046875,2.86865234375
80288,-0.0291748046875,-0.0675048828125,0.9935302734375,1.89208984375,2.13623046875,2.74658203125
80296,-0.03076171875,-0.0667724609375,0.9945068359375,1.89208984375,2.01416015625,2.8076171875
80305,-0.0296630859375,-0.068115234375,0.997314453125,1.953125,2.0751953125,2.9296875
80313,-0.0283203125,-0.066162109375,0.9986572265625,2.0751953125,2.197265625,2.86865234375
80322,-0.0279541015625,-0.0657958984375,0.99755859375,2.01416015625,2.0751953125,2.74658203125
80330,-0.02880859375,-0.06640625,0.99609375,2.0751953125,2.0751953125,2.8076171875
80339,-0.029052734375,-0.0662841796875,0.9935302734375,2.01416015625,1.953125,2.86865234375
80347,-0.0291748046875,-0.0682373046875,0.9962158203125,2.0751953125,2.13623046875,2.86865234375
80356,-0.0294189453125,-0.0665283203125,0.998291015625,2.01416015625,2.0751953125,2.86865234375
80364,-0.0296630859375,-0.066650390625,0.9984130859375,2.01416015625,2.0751953125,2.86865234375
80373,-0.02783203125,-0.0662841796875,0.998046875,2.0751953125,2.0751953125,2.8076171875
80381,-0.0284423828125,-0.06640625,0.99462890625,2.13623046875,2.01416015625,2.8076171875
80392,-0.0294189453125,-0.068359375,0.996337890625,2.13623046875,2.01416015625,2.8076171875
80399,-0.0289306640625,-0.067138671875,0.9959716796875,1.8310546875,2.0751953125,2.74658203125
80408,-0.029296875,-0.0657958984375,0.997314453125,1.708984375,2.197265625,2.74658203125
80416,-0.0274658203125,-0.0660400390625,0.9976806640625,1.89208984375,2.3193359375,2.8076171875
80424,-0.0286865234375,-0.065185546875,0.994873046875,2.01416015625,2.197265625,2.74658203125
80433,-0.029296875,-0.0662841796875,0.99560546875,2.25830078125,2.0751953125,2.74658203125
80442,-0.0289306640625,-0.06640625,0.9962158203125,2.01416015625,2.197265625,2.86865234375
80450,-0.0303955078125,-0.0657958984375,0.9974365234375,1.8310546875,2.197265625,2.9296875
80459,-0.02783203125,-0.0667724609375,0.9984130859375,1.708984375,2.13623046875,2.9296875
80467,-0.0286865234375,-0.0653076171875,0.9970703125,1.8310546875,2.13623046875,2.8076171875
80475,-0.0286865234375,-0.06640625,0.99462890625,1.953125,2.0751953125,2.9296875
80484,-0.029296875,-0.066650390625,0.99462890625,1.953125,2.01416015625,2.9296875
80493,-0.02880859375,-0.0657958984375,0.9964599609375,1.77001953125,2.0751953125,2.8076171875
80501,-0.029052734375,-0.06689453125,0.9976806640625,1.89208984375,2.25830078125,2.74658203125
80510,-0.0286865234375,-0.0653076171875,0.9981689453125,1.8310546875,2.13623046875,2.8076171875
80520,-0.0306396484375,-0.066162109375,0.995849609375,1.953125,1.953125,2.74658203125
80527,-0.029052734375,-0.0673828125,0.995361328125,2.01416015625,1.89208984375,2.74658203125
80536,-0.029541015625,-0.065185546875,0.995361328125,1.8310546875,2.0751953125,2.685546875
80544,-0.029052734375,-0.06689453125,0.99755859375,1.8310546875,2.197265625,2.86865234375
80553,-0.028076171875,-0.066162109375,0.998046875,1.953125,2.13623046875,2.74658203125
80561,-0.0296630859375,-0.065185546875,0.9962158203125,1.8310546875,2.197265625,2.86865234375
80570,-0.0284423828125,-0.067138671875,0.99609375,1.953125,2.0751953125,2.8076171875
80578,-0.029052734375,-0.0657958984375,0.996337890625,1.8310546875,2.13623046875,2.86865234375
80587,-0.029052734375,-0.0672607421875,0.9986572265625,1.8310546875,2.197265625,2.86865234375
80595,-0.0291748046875,-0.0662841796875,0.9967041015625,1.89208984375,2.13623046875,2.9296875
80604,-0.029541015625,-0.065673828125,0.9954833984375,2.01416015625,2.0751953125,2.99072265625
80612,-0.029541015625,-0.0679931640625,0.9947509765625,1.953125,1.89208984375,2.99072265625
80621,-0.029052734375,-0.0660400390625,0.996337890625,1.89208984375,2.13623046875,2.8076171875
80629,-0.0291748046875,-0.06689453125,0.997802734375,1.8310546875,2.3193359375,2.86865234375
80638,-0.0283203125,-0.0665283203125,0.9986572265625,1.77001953125,2.25830078125,2.74658203125
80648,-0.0283203125,-0.065185546875,0.9964599609375,1.89208984375,2.13623046875,2.9296875
80655,-0.0281982421875,-0.067626953125,0.995849609375,1.953125,1.953125,2.99072265625
80664,-0.0291748046875,-0.06591796875,0.9940185546875,2.01416015625,2.01416015625,2.86865234375
80672,-0.02978515625,-0.0670166015625,0.9969482421875,1.953125,2.0751953125,2.685546875
80680,-0.0291748046875,-0.067138671875,0.9989013671875,1.708984375,2.25830078125,2.8076171875
80689,-0.0289306640625,-0.064697265625,0.998046875,1.64794921875,2.25830078125,2.685546875
80698,-0.0284423828125,-0.0673828125,0.997314453125,1.8310546875,2.0751953125,2.86865234375
80707,-0.029052734375,-0.06591796875,0.9947509765625,2.01416015625,1.89208984375,2.86865234375
80715,-0.0299072265625,-0.066650390625,0.9947509765625,2.01416015625,2.01416015625,2.74658203125
80724,-0.02880859375,-0.0672607421875,0.998291015625,2.0751953125,2.197265625,2.86865234375
80732,-0.0284423828125,-0.0660400390625,0.9976806640625,1.708984375,2.197265625,2.86865234375
80740,-0.0277099609375,-0.0660400390625,0.998291015625,1.8310546875,2.13623046875,2.8076171875
80749,-0.0286865234375,-0.066162109375,0.9964599609375,1.8310546875,1.953125,2.8076171875
80757,-0.02978515625,-0.0667724609375,0.9937744140625,2.01416015625,1.953125,2.8076171875
80766,-0.0286865234375,-0.0675048828125,0.99462890625,1.953125,2.0751953125,2.74658203125
80776,-0.0289306640625,-0.06640625,0.9970703125,1.89208984375,2.13623046875,2.8076171875
80783,-0.0286865234375,-0.06640625,0.9986572265625,1.89208984375,2.25830078125,2.99072265625
80792,-0.0283203125,-0.065673828125,0.997314453125,1.953125,2.13623046875,2.9296875
80800,-0.029296875,-0.0662841796875,0.9957275390625,1.77001953125,2.13623046875,2.74658203125
80809,-0.0289306640625,-0.067626953125,0.9951171875,1.8310546875,2.13623046875,2.86865234375
80817,-0.0296630859375,-0.0654296875,0.99609375,1.8310546875,2.13623046875,2.86865234375
80826,-0.0286865234375,-0.0660400390625,0.998046875,1.89208984375,2.25830078125,2.86865234375
80834,-0.02783203125,-0.06591796875,0.997802734375,1.953125,2.3193359375,2.74658203125
80843,-0.0294189453125,-0.066162109375,0.997314453125,1.8310546875,2.197265625,2.86865234375
80851,-0.0283203125,-0.066650390625,0.995849609375,2.0751953125,2.197265625,3.11279296875
80860,-0.029541015625,-0.06640625,0.99462890625,2.01416015625,2.01416015625,2.86865234375
80868,-0.0296630859375,-0.06640625,0.9970703125,1.77001953125,2.0751953125,2.8076171875
80877,-0.028564453125,-0.0665283203125,0.998779296875,1.77001953125,2.197265625,2.74658203125
80886,-0.029052734375,-0.0655517578125,0.9981689453125,1.89208984375,2.197265625,2.86865234375
80894,-0.02880859375,-0.0670166015625,0.99658203125,2.0751953125,2.0751953125,2.8076171875
80904,-0.02880859375,-0.06689453125,0.994873046875,2.13623046875,2.01416015625,2.9296875
80911,-0.0291748046875,-0.067138671875,0.9964599609375,2.01416015625,2.01416015625,2.8076171875
80920,-0.02783203125,-0.066162109375,0.99755859375,1.953125,2.25830078125,2.86865234375
80929,-0.0291748046875,-0.065185546875,0.998291015625,1.77001953125,2.3193359375,2.8076171875
80937,-0.0281982421875,-0.0660400390625,0.9969482421875,1.89208984375,2.197265625,2.9296875
80946,-0.029296875,-0.0660400390625,0.9935302734375,2.01416015625,2.01416015625,2.9296875
80954,-0.0299072265625,-0.067626953125,0.995361328125,2.13623046875,2.0751953125,2.9296875
80963,-0.029052734375,-0.0665283203125,0.9962158203125,1.953125,2.13623046875,2.86865234375
80971,-0.0281982421875,-0.0657958984375,0.9991455078125,1.8310546875,2.38037109375,2.86865234375
80980,-0.0283203125,-0.0670166015625,0.9993896484375,1.77001953125,2.38037109375,2.86865234375
80988,-0.0281982421875,-0.0657958984375,0.9940185546875,1.953125,2.197265625,2.9296875
80997,-0.0302734375,-0.067138671875,0.9932861328125,2.01416015625,2.0751953125,2.8076171875
81005,-0.029296875,-0.0673828125,0.99560546875,1.953125,2.13623046875,2.9296875
81016,-0.029052734375,-0.0667724609375,0.9979248046875,1.8310546875,2.197265625,2.99072265625
81022,-0.0277099609375,-0.0660400390625,1.000244140625,1.77001953125,2.38037109375,3.0517578125
81032,-0.0283203125,-0.06494140625,0.996337890625,1.89208984375,2.197265625,2.99072265625
81039,-0.0296630859375,-0.067138671875,0.9949951171875,2.13623046875,2.0751953125,2.9296875
81048,-0.0299072265625,-0.0673828125,0.994384765625,2.13623046875,2.13623046875,2.9296875
81057,-0.030517578125,-0.0670166015625,0.9970703125,2.0751953125,2.0751953125,2.9296875
81065,-0.0279541015625,-0.067138671875,0.9984130859375,1.953125,2.197265625,2.9296875
81074,-0.0286865234375,-0.0650634765625,0.9976806640625,1.8310546875,2.38037109375,2.86865234375
81082,-0.0286865234375,-0.0675048828125,0.997314453125,2.13623046875,2.3193359375,2.74658203125
81091,-0.0283203125,-0.0667724609375,0.9947509765625,2.0751953125,2.13623046875,2.8076171875
81099,-0.029296875,-0.066650390625,0.994873046875,1.953125,2.13623046875,2.9296875
81108,-0.0284423828125,-0.066650390625,0.99658203125,1.89208984375,2.25830078125,2.9296875
81116,-0.02880859375,-0.0660400390625,0.998046875,1.953125,2.38037109375,2.86865234375
81125,-0.0281982421875,-0.067138671875,0.9979248046875,2.0751953125,2.197265625,2.8076171875
81133,-0.0284423828125,-0.06591796875,0.99609375,2.01416015625,2.01416015625,2.8076171875
81144,-0.0301513671875,-0.0655517578125,0.995361328125,2.0751953125,2.01416015625,2.74658203125
81151,-0.02880859375,-0.0672607421875,0.99609375,1.89208984375,2.0751953125,2.9296875
81160,-0.0289306640625,-0.0653076171875,0.9962158203125,1.8310546875,2.197265625,2.86865234375
81168,-0.0289306640625,-0.0679931640625,0.998291015625,1.89208984375,2.197265625,2.9296875
81176,-0.028076171875,-0.0650634765625,0.9971923828125,1.89208984375,2.197265625,2.9296875
81185,-0.029052734375,-0.0665283203125,0.996337890625,1.8310546875,2.13623046875,2.74658203125
81193,-0.029296875,-0.066650390625,0.99560546875,1.953125,2.25830078125,2.9296875
81202,-0.0299072265625,-0.065673828125,0.99560546875,2.01416015625,2.25830078125,2.99072265625
81210,-0.02880859375,-0.0672607421875,0.996826171875,1.953125,2.13623046875,2.86865234375
81219,-0.0291748046875,-0.066162109375,0.997314453125,2.01416015625,2.197265625,2.74658203125
81227,-0.030029296875,-0.0667724609375,0.9971923828125,2.01416015625,2.13623046875,2.74658203125
81236,-0.0291748046875,-0.06689453125,0.997314453125,2.13623046875,2.25830078125,2.9296875
81244,-0.029052734375,-0.0655517578125,0.9969482421875,1.953125,2.197265625,3.0517578125
81253,-0.0283203125,-0.0665283203125,0.99755859375,1.953125,2.13623046875,3.0517578125
81262,-0.0286865234375,-0.06591796875,0.9959716796875,2.197265625,2.0751953125,3.0517578125
81272,-0.0302734375,-0.06787109375,0.994140625,2.197265625,2.01416015625,2.99072265625
81279,-0.02880859375,-0.068115234375,0.99658203125,2.13623046875,2.3193359375,2.9296875
81288,-0.030029296875,-0.0662841796875,0.9981689453125,1.89208984375,2.38037109375,2.86865234375
81296,-0.0284423828125,-0.0662841796875,0.9989013671875,2.01416015625,2.25830078125,3.0517578125
81304,-0.029052734375,-0.0645751953125,0.996337890625,1.953125,2.197265625,3.0517578125
81313,-0.030029296875,-0.0670166015625,0.9967041015625,2.0751953125,2.13623046875,2.86865234375
81321,-0.02880859375,-0.06689453125,0.995361328125,2.0751953125,2.0751953125,3.0517578125
81330,-0.0306396484375,-0.066162109375,0.9974365234375,1.8310546875,2.13623046875,2.9296875
81339,-0.0279541015625,-0.0675048828125,0.9991455078125,1.89208984375,2.197265625,2.99072265625
81347,-0.0284423828125,-0.0657958984375,0.9974365234375,1.8310546875,2.3193359375,2.9296875
81356,-0.02978515625,-0.066650390625,0.99658203125,1.89208984375,2.13623046875,2.86865234375
81364,-0.0291748046875,-0.067138671875,0.995849609375,1.953125,2.197265625,2.8076171875
81373,-0.0301513671875,-0.0653076171875,0.995849609375,1.953125,2.13623046875,2.8076171875
81381,-0.0299072265625,-0.068359375,0.9967041015625,2.01416015625,2.25830078125,2.99072265625
81390,-0.0296630859375,-0.06591796875,0.9979248046875,1.8310546875,2.13623046875,2.9296875
81400,-0.028564453125,-0.0657958984375,0.997314453125,1.8310546875,2.13623046875,2.86865234375
81407,-0.029052734375,-0.0654296875,0.9964599609375,1.8310546875,2.0751953125,2.99072265625
81416,-0.0299072265625,-0.0648193359375,0.99609375,2.01416015625,2.197265625,2.86865234375
81424,-0.029296875,-0.067626953125,0.996337890625,2.13623046875,2.25830078125,2.9296875
81433,-0.029541015625,-0.0657958984375,0.996826171875,1.89208984375,2.3193359375,2.8076171875
81441,-0.029296875,-0.0675048828125,0.9996337890625,1.8310546875,2.25830078125,2.8076171875
81450,-0.0294189453125,-0.0655517578125,0.997802734375,1.953125,2.3193359375,2.685546875
81458,-0.0289306640625,-0.066162109375,0.99560546875,1.953125,2.0751953125,2.86865234375
81467,-0.0286865234375,-0.0673828125,0.9954833984375,2.0751953125,2.13623046875,3.0517578125
81475,-0.030029296875,-0.0660400390625,0.9969482421875,1.953125,2.197265625,2.8076171875
81484,-0.0283203125,-0.0667724609375,0.998046875,1.89208984375,2.25830078125,2.74658203125
81493,-0.0294189453125,-0.0648193359375,0.9984130859375,1.953125,2.13623046875,2.9296875
81501,-0.0303955078125,-0.06591796875,0.99658203125,2.01416015625,1.89208984375,2.8076171875
81510,-0.029052734375,-0.0677490234375,0.9951171875,2.01416015625,2.01416015625,2.86865234375
81518,-0.0301513671875,-0.0672607421875,0.9949951171875,1.953125,2.01416015625,2.8076171875
81528,-0.0289306640625,-0.06787109375,0.99951171875,1.8310546875,2.38037109375,2.8076171875
81535,-0.0283203125,-0.06494140625,0.9998779296875,1.89208984375,2.38037109375,2.8076171875
81544,-0.0289306640625,-0.0657958984375,0.997802734375,1.77001953125,2.197265625,2.86865234375
81552,-0.0289306640625,-0.0672607421875,0.995361328125,2.13623046875,2.25830078125,2.9296875
81560,-0.0301513671875,-0.0665283203125,0.9932861328125,1.953125,2.0751953125,2.8076171875
81569,-0.028564453125,-0.067138671875,0.9974365234375,2.01416015625,2.13623046875,2.9296875
81578,-0.029541015625,-0.0650634765625,0.999267578125,1.708984375,2.50244140625,2.86865234375
81586,-0.02880859375,-0.0653076171875,1.0,1.77001953125,2.25830078125,2.86865234375
81595,-0.0286865234375,-0.06591796875,0.9954833984375,2.01416015625,2.3193359375,2.86865234375
81604,-0.030517578125,-0.066162109375,0.9932861328125,2.01416015625,2.0751953125,2.99072265625
81612,-0.0296630859375,-0.06689453125,0.9937744140625,2.0751953125,2.0751953125,2.9296875
81620,-0.029541015625,-0.0662841796875,0.99658203125,1.89208984375,2.13623046875,2.86865234375
81629,-0.029052734375,-0.0660400390625,1.0,1.8310546875,2.25830078125,2.86865234375
81637,-0.028076171875,-0.0648193359375,0.998291015625,1.8310546875,2.197265625,2.8076171875
81646,-0.0294189453125,-0.0655517578125,0.9951171875,1.953125,2.0751953125,2.74658203125
81656,-0.029541015625,-0.0667724609375,0.994140625,2.13623046875,1.953125,2.74658203125
81663,-0.0303955078125,-0.066162109375,0.9945068359375,2.01416015625,1.953125,2.74658203125
81672,-0.029541015625,-0.068359375,0.9984130859375,1.8310546875,2.13623046875,2.86865234375
81680,-0.0281982421875,-0.0670166015625,0.9989013671875,1.77001953125,2.3193359375,2.8076171875
81689,-0.028564453125,-0.0657958984375,0.998046875,1.77001953125,2.197265625,2.74658203125
81697,-0.0286865234375,-0.0665283203125,0.9952392578125,2.01416015625,2.13623046875,2.8076171875
81706,-0.0306396484375,-0.066162109375,0.993408203125,2.197265625,2.13623046875,2.86865234375
81714,-0.0286865234375,-0.0679931640625,0.9969482421875,1.953125,2.0751953125,2.9296875
81723,-0.0277099609375,-0.06640625,0.9979248046875,1.708984375,2.25830078125,2.8076171875
81731,-0.0284423828125,-0.0645751953125,0.999267578125,1.89208984375,2.13623046875,2.8076171875
81740,-0.0279541015625,-0.0657958984375,0.9964599609375,2.13623046875,2.197265625,2.99072265625
81748,-0.029052734375,-0.06640625,0.993408203125,2.13623046875,2.0751953125,2.86865234375
81757,-0.0291748046875,-0.0672607421875,0.9952392578125,2.25830078125,2.197265625,2.8076171875
81766,-0.029052734375,-0.06591796875,0.997314453125,1.953125,2.3193359375,2.9296875
81774,-0.02880859375,-0.06640625,0.99951171875,1.77001953125,2.3193359375,2.86865234375
81784,-0.0279541015625,-0.0672607421875,0.9984130859375,1.89208984375,2.25830078125,2.8076171875
81791,-0.0284423828125,-0.06591796875,0.9951171875,2.13623046875,2.01416015625,2.8076171875
81800,-0.0289306640625,-0.067626953125,0.9942626953125,2.01416015625,2.0751953125,2.86865234375
81808,-0.0291748046875,-0.06640625,0.9952392578125,1.89208984375,2.13623046875,2.8076171875
81817,-0.0296630859375,-0.06689453125,0.999267578125,1.708984375,2.3193359375,2.8076171875
81825,-0.0272216796875,-0.06640625,1.000244140625,1.708984375,2.25830078125,2.8076171875
81834,-0.0296630859375,-0.064453125,0.9974365234375,1.89208984375,2.01416015625,2.86865234375
81843,-0.029541015625,-0.0675048828125,0.9942626953125,2.197265625,2.01416015625,2.99072265625
81851,-0.0306396484375,-0.066650390625,0.9921875,2.0751953125,1.953125,2.8076171875
81860,-0.0303955078125,-0.06787109375,0.99609375,1.8310546875,2.01416015625,2.685546875
81868,-0.028564453125,-0.066650390625,1.000244140625,1.708984375,2.25830078125,2.74658203125
81877,-0.02880859375,-0.064697265625,0.999267578125,1.8310546875,2.3193359375,2.685546875
81885,-0.029052734375,-0.066162109375,0.9967041015625,1.8310546875,2.197265625,2.86865234375
81896,-0.029541015625,-0.065673828125,0.9932861328125,2.01416015625,1.953125,2.99072265625
81902,-0.0302734375,-0.067626953125,0.99462890625,1.953125,1.89208984375,2.86865234375
81912,-0.0286865234375,-0.066650390625,0.99755859375,1.89208984375,2.0751953125,2.86865234375
81920,-0.029296875,-0.0654296875,0.999267578125,1.8310546875,2.0751953125,2.74658203125
81928,-0.0284423828125,-0.0667724609375,0.9991455078125,1.8310546875,2.13623046875,2.685546875
81937,-0.0289306640625,-0.066162109375,0.99365234375,1.89208984375,1.89208984375,2.74658203125
81945,-0.0306396484375,-0.0672607421875,0.9930419921875,1.89208984375,2.01416015625,2.74658203125
81954,-0.028564453125,-0.067138671875,0.99609375,1.89208984375,2.197265625,2.99072265625
81962,-0.0286865234375,-0.06591796875,0.9976806640625,1.8310546875,2.25830078125,2.8076171875
81971,-0.0286865234375,-0.0665283203125,0.998779296875,1.89208984375,2.197265625,2.86865234375
81979,-0.0286865234375,-0.06494140625,0.996826171875,1.8310546875,2.01416015625,2.86865234375
81988,-0.02783203125,-0.066162109375,0.9949951171875,1.953125,1.89208984375,2.74658203125
81996,-0.029296875,-0.0667724609375,0.994873046875,2.01416015625,2.0751953125,2.86865234375
82005,-0.029541015625,-0.066650390625,0.996337890625,1.89208984375,2.13623046875,2.86865234375
82013,-0.0286865234375,-0.0672607421875,0.998779296875,1.8310546875,2.197265625,2.99072265625
82024,-0.028076171875,-0.065185546875,0.996337890625,1.77001953125,2.25830078125,2.99072265625
82030,-0.0291748046875,-0.0657958984375,0.9967041015625,1.8310546875,2.01416015625,2.8076171875
82040,-0.02880859375,-0.0673828125,0.9945068359375,1.953125,2.01416015625,2.74658203125
82048,-0.0301513671875,-0.0650634765625,0.995849609375,1.89208984375,2.01416015625,2.74658203125
82056,-0.029052734375,-0.0665283203125,0.9991455078125,1.77001953125,2.13623046875,2.8076171875
82065,-0.0289306640625,-0.065673828125,0.9979248046875,1.8310546875,2.13623046875,2.86865234375
82073,-0.0294189453125,-0.0657958984375,0.996826171875,1.953125,2.13623046875,2.9296875
82082,-0.0284423828125,-0.0670166015625,0.994873046875,2.25830078125,2.0751953125,2.9296875
82091,-0.0301513671875,-0.066162109375,0.9945068359375,2.13623046875,2.01416015625,2.8076171875
82099,-0.0283203125,-0.0682373046875,0.99658203125,2.01416015625,2.13623046875,3.0517578125
82108,-0.0284423828125,-0.065673828125,0.9974365234375,1.77001953125,2.25830078125,2.86865234375
82116,-0.029052734375,-0.06640625,0.998291015625,1.8310546875,2.13623046875,2.99072265625
82124,-0.0283203125,-0.06640625,0.9964599609375,2.0751953125,2.0751953125,2.86865234375
82133,-0.029052734375,-0.066162109375,0.993408203125,2.0751953125,2.0751953125,2.74658203125
82141,-0.0286865234375,-0.0677490234375,0.9964599609375,2.01416015625,2.13623046875,2.74658203125
82152,-0.0289306640625,-0.0670166015625,0.997314453125,1.89208984375,2.25830078125,2.8076171875
82159,-0.0296630859375,-0.0655517578125,0.9967041015625,1.77001953125,2.197265625,2.74658203125
82168,-0.0284423828125,-0.0670166015625,0.9970703125,1.953125,2.0751953125,2.8076171875
82176,-0.0294189453125,-0.0653076171875,0.9957275390625,1.89208984375,2.0751953125,2.8076171875
82185,-0.0289306640625,-0.0675048828125,0.9959716796875,1.953125,2.13623046875,2.9296875
82193,-0.029052734375,-0.066162109375,0.9970703125,1.8310546875,2.13623046875,2.86865234375
82201,-0.0289306640625,-0.066162109375,0.997314453125,1.8310546875,2.197265625,2.8076171875
82210,-0.028564453125,-0.06640625,0.998046875,1.953125,2.13623046875,2.685546875
82218,-0.028076171875,-0.066162109375,0.9947509765625,2.01416015625,2.01416015625,2.685546875
82227,-0.029541015625,-0.068359375,0.9962158203125,2.0751953125,2.01416015625,2.8076171875
82236,-0.0291748046875,-0.067626953125,0.9971923828125,1.89208984375,2.197265625,2.8076171875
82244,-0.029052734375,-0.065673828125,0.9986572265625,1.708984375,2.197265625,2.86865234375
82253,-0.0286865234375,-0.06689453125,0.9986572265625,1.708984375,2.25830078125,2.8076171875
82262,-0.029541015625,-0.0654296875,0.9951171875,1.8310546875,2.13623046875,2.8076171875
82270,-0.0303955078125,-0.06787109375,0.9935302734375,1.953125,1.89208984375,2.8076171875
82280,-0.03076171875,-0.067138671875,0.995849609375,1.953125,2.0751953125,2.9296875
82287,-0.02880859375,-0.0657958984375,0.997802734375,1.708984375,2.0751953125,2.74658203125
82296,-0.0284423828125,-0.0670166015625,0.999755859375,1.708984375,2.13623046875,2.62451171875
82304,-0.0281982421875,-0.065185546875,0.9969482421875,1.8310546875,2.01416015625,2.8076171875
82313,-0.0294189453125,-0.0665283203125,0.996337890625,2.13623046875,2.01416015625,2.9296875
82321,-0.029296875,-0.06787109375,0.9932861328125,2.01416015625,2.01416015625,2.8076171875
82330,-0.029541015625,-0.067138671875,0.996826171875,1.708984375,2.01416015625,2.86865234375
82338,-0.0289306640625,-0.067626953125,0.9998779296875,1.64794921875,2.197265625,2.8076171875
82346,-0.0279541015625,-0.0653076171875,0.999267578125,1.77001953125,2.197265625,2.86865234375
82355,-0.0289306640625,-0.065673828125,0.9962158203125,1.953125,1.953125,2.86865234375
82364,-0.029541015625,-0.067138671875,0.9935302734375,2.01416015625,2.01416015625,2.8076171875
82372,-0.031005859375,-0.067138671875,0.99365234375,1.953125,2.0751953125,2.86865234375
82381,-0.0306396484375,-0.068115234375,0.9996337890625,1.953125,2.197265625,2.86865234375
82390,-0.0283203125,-0.0667724609375,0.9998779296875,1.8310546875,2.44140625,2.86865234375
82398,-0.0284423828125,-0.065185546875,0.998046875,1.77001953125,2.13623046875,2.685546875
82408,-0.0283203125,-0.0670166015625,0.9952392578125,1.953125,2.01416015625,2.74658203125
82415,-0.0296630859375,-0.0667724609375,0.9930419921875,2.0751953125,2.01416015625,2.74658203125
82424,-0.0296630859375,-0.0667724609375,0.99560546875,1.953125,2.01416015625,2.74658203125
82432,-0.0289306640625,-0.066650390625,0.9974365234375,1.953125,2.38037109375,2.74658203125
82441,-0.0294189453125,-0.065673828125,0.9991455078125,1.8310546875,2.44140625,2.86865234375
82449,-0.0291748046875,-0.067626953125,0.99755859375,1.953125,2.01416015625,2.8076171875
82458,-0.0286865234375,-0.0654296875,0.9949951171875,2.01416015625,2.0751953125,2.74658203125
82467,-0.0302734375,-0.0675048828125,0.9951171875,2.0751953125,1.953125,2.8076171875
82475,-0.0294189453125,-0.0682373046875,0.9959716796875,2.01416015625,1.953125,2.86865234375
82484,-0.0289306640625,-0.06591796875,0.9984130859375,1.77001953125,2.38037109375,2.86865234375
82492,-0.029052734375,-0.0662841796875,0.9996337890625,1.8310546875,2.197265625,2.9296875
82500,-0.0291748046875,-0.066162109375,0.9964599609375,1.89208984375,1.953125,2.8076171875
82509,-0.029296875,-0.06689453125,0.9940185546875,2.01416015625,1.89208984375,2.9296875
82518,-0.0299072265625,-0.06640625,0.9930419921875,2.13623046875,2.0751953125,2.86865234375
82526,-0.02880859375,-0.0665283203125,0.99658203125,1.8310546875,2.13623046875,2.86865234375
82536,-0.02880859375,-0.0672607421875,0.9996337890625,1.77001953125,2.13623046875,2.86865234375
82543,-0.02880859375,-0.0660400390625,0.997314453125,1.8310546875,2.0751953125,2.9296875
82552,-0.029052734375,-0.0665283203125,0.99560546875,2.01416015625,1.89208984375,2.685546875
82560,-0.0291748046875,-0.068115234375,0.9940185546875,2.197265625,1.953125,2.8076171875
82569,-0.0291748046875,-0.06689453125,0.9945068359375,1.8310546875,2.01416015625,2.74658203125
82577,-0.0299072265625,-0.0673828125,0.9979248046875,1.77001953125,2.01416015625,2.8076171875
82586,-0.0286865234375,-0.065673828125,0.998779296875,1.8310546875,2.0751953125,2.74658203125
82594,-0.0291748046875,-0.0660400390625,0.997802734375,1.77001953125,1.953125,2.8076171875
82603,-0.0289306640625,-0.067626953125,0.9959716796875,2.13623046875,1.953125,2.74658203125
82612,-0.029541015625,-0.066650390625,0.99365234375,2.0751953125,2.0751953125,2.86865234375
82620,-0.02978515625,-0.0665283203125,0.9969482421875,1.953125,2.13623046875,2.86865234375
82629,-0.028564453125,-0.067138671875,0.9990234375,1.953125,2.0751953125,2.86865234375
82637,-0.0286865234375,-0.0650634765625,0.999267578125,1.8310546875,2.13623046875,2.8076171875
82646,-0.029052734375,-0.066650390625,0.9974365234375,1.8310546875,2.13623046875,2.86865234375
82654,-0.029052734375,-0.06640625,0.99365234375,1.953125,1.89208984375,2.74658203125
82664,-0.029541015625,-0.066650390625,0.9942626953125,1.8310546875,2.0751953125,2.685546875
82671,-0.029541015625,-0.0679931640625,0.99755859375,1.89208984375,2.0751953125,2.74658203125
82680,-0.028564453125,-0.0654296875,0.997802734375,1.8310546875,2.13623046875,2.8076171875
82688,-0.029052734375,-0.0655517578125,0.9991455078125,1.89208984375,2.13623046875,2.86865234375
82697,-0.02783203125,-0.0662841796875,0.9947509765625,2.01416015625,1.953125,2.8076171875
82706,-0.030517578125,-0.0665283203125,0.99365234375,1.953125,1.953125,2.9296875
82714,-0.0296630859375,-0.0677490234375,0.99560546875,2.0751953125,2.13623046875,2.9296875
82723,-0.0286865234375,-0.06591796875,0.9971923828125,1.77001953125,2.25830078125,2.99072265625
82731,-0.0286865234375,-0.0660400390625,0.9990234375,1.89208984375,2.13623046875,2.8076171875
82740,-0.0289306640625,-0.06591796875,0.9959716796875,2.01416015625,2.0751953125,2.74658203125
82748,-0.0303955078125,-0.065673828125,0.9940185546875,1.8310546875,1.8310546875,2.8076171875
82757,-0.030029296875,-0.0672607421875,0.9951171875,2.01416015625,1.8310546875,2.8076171875
82765,-0.0301513671875,-0.06591796875,0.9962158203125,1.8310546875,2.01416015625,2.74658203125
82776,-0.0291748046875,-0.0662841796875,0.998779296875,1.89208984375,2.0751953125,2.685546875
82782,-0.0279541015625,-0.066650390625,0.9979248046875,2.01416015625,2.13623046875,2.8076171875
82792,-0.02978515625,-0.0662841796875,0.9957275390625,1.89208984375,2.0751953125,2.86865234375
82800,-0.028564453125,-0.0675048828125,0.99560546875,1.8310546875,2.13623046875,2.8076171875
82808,-0.0291748046875,-0.0654296875,0.99462890625,1.8310546875,2.0751953125,2.86865234375
82817,-0.0284423828125,-0.067138671875,0.997314453125,1.77001953125,2.0751953125,2.8076171875
82825,-0.0284423828125,-0.065673828125,0.995849609375,1.89208984375,2.0751953125,2.74658203125
82834,-0.0294189453125,-0.0650634765625,0.9967041015625,1.953125,2.01416015625,2.86865234375
82842,-0.0281982421875,-0.0672607421875,0.996337890625,2.01416015625,1.953125,2.86865234375
82851,-0.0286865234375,-0.0662841796875,0.9959716796875,2.01416015625,2.197265625,2.99072265625
82859,-0.0283203125,-0.06591796875,0.9971923828125,1.77001953125,2.0751953125,2.8076171875
82868,-0.0277099609375,-0.06591796875,0.997314453125,1.953125,2.0751953125,2.8076171875
82877,-0.0294189453125,-0.0660400390625,0.9962158203125,2.01416015625,1.953125,2.8076171875
82885,-0.0284423828125,-0.0675048828125,0.9949951171875,2.0751953125,1.89208984375,2.8076171875
82894,-0.029296875,-0.066162109375,0.9954833984375,1.89208984375,1.89208984375,2.9296875
82904,-0.031005859375,-0.0672607421875,0.9976806640625,1.953125,2.197265625,2.8076171875
82910,-0.02880859375,-0.066162109375,0.997802734375,1.77001953125,2.25830078125,2.8076171875
82920,-0.0289306640625,-0.064453125,0.9964599609375,1.89208984375,2.01416015625,2.8076171875
82928,-0.02880859375,-0.0679931640625,0.9954833984375,2.01416015625,1.953125,2.74658203125
82936,-0.0299072265625,-0.066650390625,0.9954833984375,2.01416015625,2.0751953125,2.8076171875
82945,-0.029052734375,-0.0672607421875,0.997314453125,1.953125,2.13623046875,2.8076171875
82953,-0.0286865234375,-0.0665283203125,0.998779296875,1.89208984375,2.13623046875,2.74658203125
82962,-0.029052734375,-0.0654296875,0.9979248046875,1.77001953125,2.13623046875,2.74658203125
82970,-0.0281982421875,-0.0665283203125,0.9954833984375,2.01416015625,2.197265625,2.86865234375
82979,-0.030029296875,-0.06591796875,0.991943359375,2.0751953125,1.89208984375,2.9296875
82987,-0.0301513671875,-0.0677490234375,0.994140625,2.01416015625,2.01416015625,2.86865234375
82996,-0.0281982421875,-0.067138671875,0.998291015625,1.89208984375,2.25830078125,2.9296875
83004,-0.0284423828125,-0.0640869140625,0.9998779296875,1.64794921875,2.13623046875,2.9296875
83013,-0.0283203125,-0.0670166015625,0.996826171875,2.01416015625,2.197265625,2.9296875
83022,-0.0291748046875,-0.0662841796875,0.99365234375,2.01416015625,1.953125,2.9296875
83032,-0.0302734375,-0.0675048828125,0.9930419921875,2.0751953125,1.89208984375,2.86865234375
83039,-0.029541015625,-0.0677490234375,0.996826171875,1.953125,2.197265625,2.9296875
83048,-0.0286865234375,-0.066162109375,1.000244140625,1.77001953125,2.38037109375,2.86865234375
83056,-0.0279541015625,-0.065673828125,0.998779296875,1.708984375,2.25830078125,2.8076171875
83064,-0.0284423828125,-0.0643310546875,0.9942626953125,1.953125,2.01416015625,2.74658203125
83073,-0.0302734375,-0.06787109375,0.9925537109375,2.0751953125,1.953125,2.74658203125
83082,-0.0299072265625,-0.06787109375,0.9937744140625,1.953125,2.197265625,2.8076171875
83090,-0.0296630859375,-0.0662841796875,0.998779296875,1.77001953125,2.25830078125,2.74658203125
83099,-0.0283203125,-0.066162109375,1.00048828125,1.8310546875,2.3193359375,2.8076171875
83107,-0.0289306640625,-0.0645751953125,0.99658203125,1.953125,2.3193359375,2.9296875
83116,-0.029052734375,-0.0665283203125,0.9930419921875,2.01416015625,2.0751953125,2.9296875
83124,-0.030029296875,-0.0679931640625,0.992431640625,2.0751953125,2.0751953125,2.86865234375
83133,-0.0302734375,-0.0670166015625,0.9952392578125,1.77001953125,2.3193359375,2.8076171875
83141,-0.028076171875,-0.067138671875,1.0003662109375,1.708984375,2.38037109375,2.99072265625
83150,-0.02783203125,-0.064208984375,0.998046875,1.77001953125,2.25830078125,2.86865234375
83160,-0.02734375,-0.065673828125,0.9945068359375,1.953125,1.953125,2.74658203125
83167,-0.028076171875,-0.0657958984375,0.990966796875,2.13623046875,1.8310546875,2.86865234375
83176,-0.0302734375,-0.0672607421875,0.9937744140625,2.0751953125,2.01416015625,2.8076171875
83184,-0.028564453125,-0.0679931640625,0.998291015625,1.953125,2.25830078125,2.9296875
83193,-0.0289306640625,-0.065673828125,0.9991455078125,1.77001953125,2.38037109375,2.86865234375
83201,-0.0277099609375,-0.0657958984375,0.9984130859375,1.8310546875,2.25830078125,2.62451171875
83210,-0.0274658203125,-0.0657958984375,0.9932861328125,2.197265625,2.01416015625,2.9296875
83218,-0.029296875,-0.0672607421875,0.9908447265625,2.197265625,1.953125,2.8076171875
83227,-0.0289306640625,-0.0682373046875,0.9945068359375,2.01416015625,2.13623046875,2.74658203125
83235,-0.0283203125,-0.0662841796875,0.999755859375,1.64794921875,2.25830078125,2.8076171875
83244,-0.027587890625,-0.066162109375,1.00048828125,1.708984375,2.38037109375,2.8076171875
83253,-0.027587890625,-0.0645751953125,0.9954833984375,1.89208984375,2.0751953125,2.8076171875
83261,-0.0308837890625,-0.0667724609375,0.9923095703125,2.13623046875,1.89208984375,2.86865234375
83269,-0.029296875,-0.0682373046875,0.9920654296875,2.13623046875,2.0751953125,2.99072265625
83278,-0.0296630859375,-0.066650390625,0.995849609375,1.8310546875,2.13623046875,2.86865234375
83288,-0.0284423828125,-0.0662841796875,1.00048828125,1.8310546875,2.25830078125,2.8076171875
83295,-0.0277099609375,-0.0643310546875,0.9989013671875,1.953125,2.197265625,2.8076171875
83304,-0.030029296875,-0.06591796875,0.9957275390625,2.01416015625,2.0751953125,2.8076171875
83312,-0.0291748046875,-0.067138671875,0.99169921875,2.13623046875,1.89208984375,2.8076171875
83321,-0.02978515625,-0.066650390625,0.9949951171875,1.89208984375,2.13623046875,2.9296875
83329,-0.02978515625,-0.0677490234375,0.998291015625,1.708984375,2.3193359375,2.8076171875
83338,-0.0283203125,-0.0650634765625,1.0003662109375,1.8310546875,2.25830078125,2.86865234375
83346,-0.0286865234375,-0.066162109375,0.998291015625,1.953125,2.13623046875,2.685546875
83355,-0.0284423828125,-0.06591796875,0.9937744140625,1.89208984375,2.0751953125,2.74658203125
83363,-0.030517578125,-0.06689453125,0.992431640625,1.89208984375,1.953125,2.86865234375
83372,-0.029296875,-0.0672607421875,0.9964599609375,1.8310546875,2.0751953125,2.86865234375
83380,-0.0301513671875,-0.0660400390625,0.99853515625,1.708984375,2.3193359375,2.86865234375
83389,-0.029052734375,-0.065673828125,0.99951171875,1.708984375,2.25830078125,2.99072265625
83397,-0.028076171875,-0.0662841796875,0.9970703125,1.89208984375,2.01416015625,2.86865234375
83406,-0.030029296875,-0.065673828125,0.9935302734375,2.01416015625,2.01416015625,2.86865234375
83416,-0.030029296875,-0.068359375,0.9927978515625,2.13623046875,2.13623046875,2.9296875
83423,-0.02880859375,-0.0672607421875,0.9962158203125,2.01416015625,2.25830078125,2.99072265625
83432,-0.02978515625,-0.067138671875,1.0001220703125,2.01416015625,2.38037109375,2.99072265625
83440,-0.0283203125,-0.066650390625,0.998779296875,1.953125,2.3193359375,2.86865234375
83449,-0.02880859375,-0.0657958984375,0.9954833984375,2.0751953125,2.0751953125,2.74658203125
83457,-0.02978515625,-0.0670166015625,0.9927978515625,2.3193359375,2.0751953125,2.8076171875
83466,-0.02880859375,-0.066650390625,0.9931640625,2.01416015625,2.01416015625,2.99072265625
83475,-0.0286865234375,-0.0673828125,0.9974365234375,1.77001953125,2.38037109375,2.99072265625
83483,-0.028076171875,-0.066650390625,0.9998779296875,1.8310546875,2.25830078125,2.86865234375
83492,-0.0281982421875,-0.0657958984375,0.9974365234375,1.953125,2.01416015625,2.8076171875
83500,-0.027587890625,-0.066650390625,0.99560546875,2.197265625,2.0751953125,2.685546875
83509,-0.0301513671875,-0.06640625,0.9935302734375,2.01416015625,2.01416015625,2.86865234375
83517,-0.0294189453125,-0.0672607421875,0.996337890625,2.0751953125,2.25830078125,2.86865234375
83526,-0.028076171875,-0.0665283203125,0.998779296875,1.77001953125,2.3193359375,2.8076171875
83534,-0.028564453125,-0.0662841796875,0.9979248046875,1.89208984375,2.0751953125,2.74658203125
83544,-0.0281982421875,-0.0675048828125,0.9959716796875,2.01416015625,2.01416015625,2.86865234375
83552,-0.02978515625,-0.06591796875,0.994140625,2.01416015625,2.0751953125,2.74658203125
83560,-0.02880859375,-0.0670166015625,0.99560546875,2.13623046875,2.25830078125,2.8076171875
83569,-0.0294189453125,-0.0657958984375,0.9970703125,1.953125,2.38037109375,2.86865234375
83577,-0.029541015625,-0.0657958984375,0.9976806640625,1.708984375,2.3193359375,2.685546875
83585,-0.029052734375,-0.06640625,0.99609375,1.953125,2.3193359375,2.8076171875
83594,-0.0303955078125,-0.066650390625,0.993896484375,1.953125,1.953125,2.74658203125
83603,-0.0294189453125,-0.0672607421875,0.99658203125,2.0751953125,1.953125,2.86865234375
83611,-0.028564453125,-0.06640625,0.995361328125,1.77001953125,2.13623046875,2.9296875
83620,-0.0291748046875,-0.066650390625,0.996337890625,1.89208984375,2.197265625,2.8076171875
83628,-0.02880859375,-0.0672607421875,0.9964599609375,2.01416015625,2.25830078125,2.74658203125
83637,-0.029052734375,-0.0662841796875,0.996337890625,1.953125,1.953125,2.8076171875
83645,-0.0284423828125,-0.0679931640625,0.9962158203125,2.13623046875,2.01416015625,2.74658203125
83656,-0.0294189453125,-0.065185546875,0.9959716796875,1.953125,2.197265625,2.685546875
83662,-0.0281982421875,-0.066650390625,0.9974365234375,1.8310546875,2.25830078125,2.86865234375
83672,-0.02880859375,-0.0662841796875,0.9964599609375,1.89208984375,2.13623046875,2.99072265625
83680,-0.0299072265625,-0.06640625,0.99609375,2.01416015625,1.953125,2.86865234375
83688,-0.028564453125,-0.067626953125,0.9959716796875,2.0751953125,2.01416015625,2.8076171875
83697,-0.02978515625,-0.06689453125,0.99560546875,1.953125,2.01416015625,2.99072265625
83705,-0.029296875,-0.0670166015625,0.998779296875,1.89208984375,2.01416015625,2.9296875
83714,-0.0284423828125,-0.0662841796875,0.9971923828125,1.8310546875,2.13623046875,2.86865234375
