t_ms,ax,ay,az,gx,gy,gz,a0,a1,a2,a3,a4,a5,a6,a7,a8,a9,a10,a11,a12,a13,a14,a15,a16,a17,a18,a19,a20,a21,a22,a23,a24,a25,a26,a27,a28,a29,a30,a31,a32,a33,a34,a35,a36,a37,a38,a39,a40,a41,a42,a43,a44,a45,a46,a47,a48,a49,a50,a51,a52,a53,a54,a55,a56,a57,a58,a59,a60,a61,a62,a63,a64,a65,a66,a67,a68,a69,a70,a71,a72,a73,a74,a75,a76,a77,a78,a79
8897,0.0040283203125,-0.0401611328125,0.9112548828125,-4.33349609375,18.6767578125,-1.28173828125,594,582,581,576,579,574,572,574,572,569,569,569,568,571,569,571,565,568,567,567,567,567,564,568,564,568,568,565,566,567,567,570,566,569,566,567,566,565,569,568,568,565,567,567,568,565,565,563,567,563,564,566,565,564,563,566,564,566,565,563,566,565,564,563,563,565,563,564,562,565,564,565,566,566,562,567,565,565,565,0
8907,-0.0616455078125,-0.0223388671875,0.7664794921875,11.8408203125,4.08935546875,-30.57861328125,642,624,610,594,580,569,555,547,534,528,519,510,505,499,494,492,485,479,477,472,469,466,462,461,467,465,462,462,456,456,458,455,453,453,451,450,449,450,446,447,445,442,443,446,445,442,439,441,442,440,463,488,503,514,527,530,538,546,549,553,552,557,559,560,562,562,562,562,565,565,564,564,565,566,565,565,564,565,565,567
8917,0.0045166015625,-0.0443115234375,0.9249267578125,7.75146484375,-3.35693359375,-17.39501953125,641,624,607,592,579,565,551,541,535,525,516,509,500,494,485,485,481,475,471,466,464,461,458,456,454,452,447,452,452,449,447,445,444,445,447,445,442,440,441,439,439,435,437,436,434,433,435,435,433,433,457,477,498,508,517,526,534,540,542,545,549,552,552,557,557,557,559,560,557,561,560,561,561,561,563,560,561,563,562,561
8927,0.0029296875,-0.0433349609375,0.98681640625,2.44140625,7.26318359375,10.6201171875,640,621,608,593,579,567,552,545,536,527,516,510,505,498,490,484,483,479,473,469,468,463,459,461,457,452,452,461,456,455,453,452,449,452,450,451,449,447,446,444,445,443,443,442,443,439,436,439,439,437,438,455,476,500,507,518,528,534,542,548,551,554,555,558,557,561,563,561,561,562,565,562,562,563,565,565,564,561,564,565
8937,0.0029296875,-0.044189453125,0.9891357421875,1.03759765625,5.0048828125,10.009765625,640,624,608,593,578,566,554,543,534,531,522,513,506,500,492,487,483,479,476,471,466,462,463,460,456,455,451,451,451,450,455,451,449,449,447,450,450,450,446,444,444,442,443,442,441,438,438,440,439,439,437,447,480,485,505,515,521,533,536,542,549,549,554,552,555,556,557,559,562,561,563,561,559,561,560,563,562,560,561,560
8946,0.0048828125,-0.04345703125,0.989990234375,1.77001953125,2.25830078125,2.99072265625,635,617,603,585,572,562,550,538,527,520,519,507,503,496,488,483,481,475,474,469,465,462,457,457,453,452,449,447,446,446,442,442,442,438,440,438,443,439,439,440,439,439,443,441,439,441,438,439,438,436,456,479,494,511,517,526,533,536,544,547,550,555,551,556,553,556,559,560,561,563,559,562,564,560,563,561,562,566,562,565
8956,0.004638671875,-0.0440673828125,0.9884033203125,1.89208984375,2.197265625,2.8076171875,641,623,606,591,575,565,553,541,534,524,513,509,509,500,494,492,481,477,479,476,471,465,463,462,459,456,452,451,450,449,447,444,444,442,444,441,440,440,446,447,446,445,441,441,440,443,441,441,438,436,450,469,490,503,518,523,530,535,540,544,545,548,554,555,555,557,555,557,560,559,563,557,560,559,557,560,561,557,565,562
8966,0.0047607421875,-0.04345703125,0.9874267578125,1.953125,2.01416015625,2.8076171875,640,624,608,593,580,567,553,547,535,526,518,511,501,498,499,493,489,486,479,475,477,474,467,467,464,464,459,456,453,451,452,450,450,449,446,447,445,443,445,442,453,452,449,450,449,448,454,453,450,449,449,472,490,508,520,535,534,541,549,552,559,561,561,564,565,562,566,568,566,568,568,573,568,571,571,571,572,571,571,572
8976,0.0045166015625,-0.0440673828125,0.987548828125,1.89208984375,1.953125,2.8076171875,649,631,613,599,582,571,562,550,539,532,522,518,510,505,498,494,488,483,481,478,480,477,472,468,467,471,467,464,463,460,455,457,455,455,451,450,452,450,449,448,448,447,448,446,445,452,453,450,449,450,471,494,509,521,534,539,547,551,557,560,560,564,563,568,569,566,570,569,570,569,570,573,573,571,570,571,571,571,569,570
8986,0.0048828125,-0.0435791015625,0.986572265625,1.708984375,1.89208984375,2.86865234375,646,627,612,594,585,571,558,550,541,532,525,520,512,505,502,497,492,489,490,489,486,482,479,479,482,479,476,474,471,471,468,468,467,464,464,463,461,459,461,459,460,457,455,456,462,463,462,462,458,457,463,459,487,508,523,535,545,554,558,565,568,570,573,575,575,580,576,577,575,581,580,580,582,582,581,581,580,582,577,581
8996,0.004150390625,-0.043701171875,0.988037109375,1.89208984375,1.89208984375,2.74658203125,648,630,613,598,585,573,563,553,542,536,528,520,516,510,502,499,496,492,489,484,481,479,478,475,483,478,478,475,471,471,473,475,473,469,469,468,465,466,464,461,464,462,458,458,459,457,459,460,455,456,477,499,516,529,541,551,557,564,567,572,574,575,579,580,580,580,580,582,579,577,581,582,583,582,583,582,581,581,581,582
9006,0.0057373046875,-0.04345703125,0.988037109375,1.8310546875,1.953125,2.5634765625,647,628,613,597,585,572,565,553,545,533,531,516,510,507,501,496,492,487,484,483,477,475,473,474,469,468,468,471,470,468,467,464,470,469,468,464,462,463,462,459,460,456,458,457,453,454,456,455,453,453,459,484,502,519,531,542,550,555,560,566,568,568,573,574,574,577,574,574,578,577,580,577,575,579,580,581,580,580,580,579
9016,0.0042724609375,-0.04345703125,0.98681640625,1.953125,2.01416015625,2.74658203125,652,632,617,602,585,575,567,554,545,536,531,520,517,511,503,500,494,489,485,479,478,474,469,469,467,464,462,460,459,459,465,462,462,460,455,454,457,458,455,455,452,449,449,447,446,447,446,444,447,445,462,483,502,514,525,536,539,547,553,555,559,561,561,563,564,565,565,570,568,567,569,568,570,572,568,568,570,572,572,571
9026,0.0048828125,-0.0445556640625,0.9854736328125,2.01416015625,1.953125,2.62451171875,647,629,612,597,584,571,560,554,543,535,527,518,511,510,503,499,494,491,487,482,477,475,473,468,468,465,463,460,459,460,457,457,452,461,462,459,458,458,457,461,462,457,458,456,454,456,454,451,452,452,461,487,504,522,529,541,545,551,558,564,562,569,569,572,575,572,575,575,577,575,576,575,575,576,574,575,577,575,577,575
9035,0.0050048828125,-0.0435791015625,0.987060546875,1.953125,1.89208984375,2.5634765625,649,630,613,596,583,570,559,550,540,531,523,517,516,510,504,497,496,491,491,487,482,477,476,474,471,468,465,466,464,463,462,460,462,459,459,454,454,455,463,463,459,461,458,459,458,458,458,457,457,459,482,503,518,528,537,544,551,558,562,564,565,567,572,572,573,572,573,575,573,575,576,575,578,577,576,579,580,577,581,579
9045,0.0048828125,-0.0440673828125,0.9879150390625,1.953125,1.89208984375,2.62451171875,645,626,610,594,583,568,562,550,539,534,526,515,511,504,506,502,495,491,486,483,486,481,479,473,471,471,466,465,461,459,460,460,458,456,454,451,453,452,453,459,459,457,456,455,455,453,451,453,453,453,471,489,508,523,531,540,548,553,556,559,563,564,566,567,568,570,568,571,571,572,571,574,575,575,575,578,579,580,578,577
9055,0.0050048828125,-0.043212890625,0.98681640625,1.953125,2.01416015625,2.62451171875,648,633,615,601,587,573,562,553,544,532,525,518,512,503,502,495,489,492,490,485,482,474,473,470,469,467,464,462,461,455,456,456,455,453,453,453,451,451,451,449,447,448,446,446,454,453,450,449,450,453,478,496,510,524,533,543,551,552,556,561,566,565,568,567,570,571,568,571,571,571,573,571,574,571,573,574,574,575,573,572
9065,0.0050048828125,-0.0428466796875,0.9840087890625,2.01416015625,1.953125,2.62451171875,645,631,611,598,584,571,561,548,541,531,522,516,509,502,498,494,490,484,480,476,482,477,475,472,468,467,470,468,467,462,462,459,458,460,456,455,455,453,453,453,450,453,451,449,449,449,458,460,457,457,481,495,515,528,539,549,557,561,569,569,572,574,575,577,578,578,579,580,580,578,580,584,581,582,583,581,583,583,583,582
9075,0.003662109375,-0.04345703125,0.9864501953125,1.89208984375,2.01416015625,2.8076171875,648,631,616,600,585,572,562,548,540,530,522,514,508,500,492,491,482,481,474,474,467,473,469,465,463,459,456,459,457,454,452,450,449,448,447,443,446,443,443,440,441,437,440,440,438,438,446,445,445,445,444,465,482,498,510,524,529,543,544,551,554,555,555,560,561,562,562,566,567,566,569,568,568,566,568,567,567,566,568,567
9085,0.0028076171875,-0.042724609375,0.9874267578125,1.89208984375,2.01416015625,2.74658203125,649,632,613,597,584,572,560,553,543,533,524,516,510,500,497,491,487,484,477,473,471,467,464,463,461,455,464,463,461,456,454,455,458,454,453,452,449,450,450,447,445,443,444,444,443,442,439,442,442,441,466,482,501,513,522,536,539,545,555,551,556,557,559,563,564,564,566,566,569,567,569,564,569,567,571,566,571,571,570,572
9095,0.0047607421875,-0.0430908203125,0.985107421875,1.89208984375,2.01416015625,2.8076171875,644,627,608,597,582,569,557,547,540,531,523,516,508,499,496,492,487,482,480,475,472,468,468,464,465,459,460,459,462,462,460,458,458,457,459,459,455,452,453,452,451,449,446,447,446,444,443,444,445,441,450,481,489,509,518,531,537,542,550,554,556,560,560,563,565,564,565,573,565,571,569,571,568,570,573,573,572,576,572,571
9105,0.0052490234375,-0.0433349609375,0.984375,1.953125,2.0751953125,2.685546875,645,626,613,596,584,572,558,552,542,535,523,515,510,508,501,494,489,485,482,478,472,471,469,464,462,461,459,459,453,453,453,449,451,457,458,455,454,453,452,452,451,451,451,448,446,444,448,445,445,445,467,489,511,517,529,536,541,547,553,558,560,560,564,564,565,567,565,566,573,567,570,571,570,572,572,573,572,574,573,575
9114,0.004638671875,-0.04345703125,0.9869384765625,2.01416015625,2.13623046875,2.74658203125,647,630,611,597,583,571,561,552,543,532,524,520,513,508,502,494,491,487,481,482,475,471,468,465,463,459,460,457,454,453,452,459,459,457,455,452,453,452,452,453,451,450,449,445,446,446,447,446,445,443,444,452,479,498,513,522,534,542,547,552,554,561,560,563,564,566,568,567,567,574,569,572,572,571,572,574,573,573,570,575
9124,0.0042724609375,-0.044189453125,0.98779296875,2.01416015625,1.89208984375,2.62451171875,646,631,613,600,583,572,560,547,541,530,524,516,514,505,504,494,492,487,486,482,481,477,473,470,467,465,465,459,461,459,455,455,454,453,452,452,447,449,456,456,454,452,452,449,455,453,451,449,448,446,462,481,498,514,527,535,540,549,551,554,555,560,567,561,563,565,564,566,567,568,570,566,570,567,567,569,568,571,573,569
9134,0.00390625,-0.042724609375,0.9873046875,2.01416015625,2.0751953125,2.74658203125,651,630,613,600,585,572,562,549,541,531,523,516,511,503,505,499,496,488,484,480,481,477,475,472,467,467,464,459,458,459,454,456,451,451,451,449,447,448,447,445,454,452,450,449,449,450,450,450,448,447,445,468,490,504,513,532,535,543,547,552,555,556,563,561,563,566,566,567,568,570,570,573,568,574,572,571,569,569,570,574
9144,0.0052490234375,-0.04296875,0.985107421875,1.953125,2.01416015625,2.62451171875,648,633,617,602,585,574,559,552,542,532,523,515,509,503,495,492,485,483,478,476,478,475,472,468,466,465,466,463,459,456,457,452,453,450,452,451,447,446,447,447,446,447,445,444,441,450,452,449,450,452,474,494,506,522,530,542,549,549,557,561,563,567,568,567,570,570,569,572,572,572,573,573,576,572,574,568,571,574,570,570
9154,0.00390625,-0.043212890625,0.986572265625,1.953125,2.0751953125,2.685546875,647,628,615,601,584,573,560,551,538,531,522,514,507,501,496,489,485,481,481,477,472,470,466,464,467,465,459,460,457,456,454,452,448,447,449,447,444,445,443,443,444,441,441,440,448,445,443,447,446,443,448,448,467,488,507,516,527,534,542,544,550,552,555,556,560,560,561,562,564,565,564,563,563,566,565,567,566,566,566,565
9164,0.004638671875,-0.0428466796875,0.987548828125,1.953125,1.953125,2.62451171875,646,627,612,597,583,574,559,549,538,529,520,513,507,498,492,487,485,479,476,473,470,465,461,470,468,462,461,458,455,459,459,451,452,452,450,447,445,446,446,444,440,443,441,442,440,441,440,438,439,449,445,462,484,501,512,525,532,539,545,549,554,557,559,562,566,564,565,567,569,570,568,568,572,570,571,568,571,572,571,572
9174,0.00390625,-0.04345703125,0.9874267578125,2.0751953125,2.13623046875,2.685546875,652,638,621,605,592,578,567,556,547,537,530,522,514,507,501,497,494,485,482,480,477,475,471,472,468,466,463,472,469,467,466,463,461,462,462,459,459,458,454,453,455,453,454,449,448,451,449,449,449,449,457,480,500,515,528,536,544,552,556,561,565,567,567,572,572,573,573,576,572,576,578,575,575,578,578,580,575,575,577,579
9184,0.004638671875,-0.0430908203125,0.9866943359375,2.01416015625,2.13623046875,2.74658203125,649,630,615,601,585,576,563,554,542,533,525,522,514,509,500,496,492,485,481,478,475,470,468,466,462,460,460,458,455,453,460,460,456,455,454,453,450,455,451,453,450,449,448,447,448,447,444,446,443,443,457,478,500,512,526,533,539,548,552,557,560,563,564,567,568,570,572,571,573,574,574,574,573,573,576,574,578,575,575,575
9194,0.005126953125,-0.043212890625,0.9852294921875,1.89208984375,2.3193359375,2.62451171875,651,636,617,602,589,576,561,555,550,537,527,522,516,511,504,501,496,490,483,482,477,476,471,467,467,464,463,460,456,456,455,453,449,459,459,456,456,453,450,456,454,451,450,452,449,448,448,447,445,447,454,478,496,511,522,532,540,546,550,554,557,561,563,566,565,568,570,571,568,570,571,570,572,573,572,572,572,573,572,575
9203,0.0047607421875,-0.043212890625,0.985595703125,2.01416015625,1.953125,2.685546875,652,632,615,599,589,574,564,553,540,534,526,516,513,513,504,500,491,489,489,482,479,478,473,471,467,468,465,462,460,456,459,457,455,453,451,452,451,450,458,458,455,454,450,452,456,453,454,452,450,450,473,493,511,523,534,541,548,553,561,561,565,568,569,572,575,574,578,575,576,578,579,577,578,579,579,579,579,578,580,580
9213,0.0052490234375,-0.042724609375,0.9871826171875,1.89208984375,1.953125,2.685546875,653,637,618,603,591,576,568,555,546,537,531,522,517,509,510,506,500,495,491,487,490,484,482,477,472,474,472,469,465,462,463,463,458,460,460,456,456,453,456,460,460,459,459,455,454,457,459,459,455,453,465,487,506,521,532,542,549,555,559,564,568,569,569,572,574,574,577,575,577,575,576,574,577,575,578,578,576,575,578,579
9223,0.005126953125,-0.0416259765625,0.98876953125,1.89208984375,1.953125,2.62451171875,647,628,614,601,585,575,560,552,541,529,521,515,510,503,498,501,494,488,484,481,477,473,474,472,468,464,464,461,458,458,458,458,453,453,452,452,449,449,450,448,447,445,453,451,452,449,448,444,448,451,450,472,492,508,517,533,538,545,550,553,559,560,566,567,569,570,568,571,572,573,573,573,576,573,574,574,575,577,576,575
9233,0.0054931640625,-0.04150390625,0.9886474609375,1.77001953125,2.197265625,2.5634765625,652,633,620,601,590,575,563,554,544,533,528,519,509,504,498,495,488,486,479,477,473,476,471,467,467,465,463,463,462,461,458,453,453,453,451,452,449,447,448,449,447,444,445,445,445,441,443,451,449,450,470,489,506,517,529,536,544,549,552,555,559,559,563,562,562,565,564,567,567,567,565,566,568,567,566,563,566,567,565,568
9243,0.0057373046875,-0.043212890625,0.9881591796875,2.01416015625,2.0751953125,2.685546875,646,628,610,598,582,572,559,545,538,530,519,513,504,503,492,490,483,479,477,473,468,466,463,461,466,462,461,457,456,455,455,456,452,450,448,447,447,445,444,442,444,442,441,440,439,439,440,439,438,436,468,483,502,515,525,534,540,545,550,552,554,559,557,563,562,563,565,566,566,568,568,568,567,571,570,566,569,567,569,570
9253,0.0052490234375,-0.0438232421875,0.9876708984375,1.89208984375,1.953125,2.62451171875,643,627,610,595,582,567,558,548,539,525,520,511,503,500,492,488,486,479,476,472,470,465,462,459,459,456,463,461,458,455,454,453,457,453,454,451,449,448,447,446,446,445,441,442,441,442,441,442,443,442,467,480,498,512,523,533,541,544,547,552,555,559,559,563,562,560,564,565,565,561,565,566,564,567,566,565,566,566,567,566
9263,0.00537109375,-0.0440673828125,0.987060546875,1.953125,1.953125,2.74658203125,633,619,602,587,573,562,550,540,532,523,514,507,497,492,490,481,479,473,470,467,464,460,457,456,454,451,450,447,449,451,450,448,445,444,448,447,445,440,442,439,439,439,436,435,437,435,436,434,433,431,434,464,476,498,504,513,524,530,536,541,543,550,547,551,550,554,554,556,554,560,558,559,560,559,557,563,562,564,563,564
9273,0.0048828125,-0.044189453125,0.9876708984375,1.953125,2.01416015625,2.74658203125,638,624,607,590,580,567,557,550,540,529,522,513,507,502,496,494,487,481,477,474,472,468,468,463,462,458,456,457,454,453,452,449,449,458,455,451,452,450,447,447,449,447,446,444,445,443,446,443,442,440,460,484,506,515,528,530,540,543,549,552,557,556,560,559,561,560,563,564,571,565,565,568,566,565,565,568,568,568,569,568
9282,0.0042724609375,-0.04345703125,0.9884033203125,1.89208984375,2.01416015625,2.74658203125,631,613,597,580,569,557,541,536,521,516,513,507,498,492,487,482,475,474,471,465,461,460,456,454,453,450,450,447,446,446,443,442,442,441,440,449,447,443,446,444,441,442,443,443,442,440,440,440,439,438,457,476,495,512,519,526,536,542,543,548,553,556,556,557,560,559,562,562,562,566,560,563,561,562,561,564,561,563,560,565
9292,0.0037841796875,-0.0428466796875,0.9892578125,2.01416015625,2.0751953125,2.685546875,638,621,605,589,574,564,552,540,531,523,513,509,507,500,496,490,484,481,480,471,473,471,467,462,461,457,459,453,454,450,451,447,448,447,446,445,443,442,449,448,444,444,444,442,447,446,445,444,443,439,447,473,491,503,517,522,531,535,541,547,548,553,558,555,558,555,557,560,561,560,565,562,565,561,561,560,563,562,563,559
9302,0.0047607421875,-0.0421142578125,0.9881591796875,2.0751953125,2.13623046875,2.8076171875,637,622,606,590,577,563,554,543,534,526,517,510,505,497,493,485,487,483,479,474,471,471,470,468,464,462,458,458,452,453,451,450,448,449,447,446,445,443,445,443,441,442,453,447,447,444,443,444,444,445,463,483,499,512,521,534,537,541,546,549,552,554,555,563,559,561,562,561,561,563,564,566,562,564,563,564,563,565,566,568
9312,0.0032958984375,-0.0419921875,0.9859619140625,2.0751953125,2.13623046875,2.8076171875,643,630,612,596,583,570,557,547,541,526,522,515,507,501,498,493,487,479,478,473,479,474,472,470,467,469,467,467,465,460,458,459,455,457,452,454,452,450,449,447,450,447,447,447,445,445,452,451,451,447,475,489,508,518,530,538,543,550,552,556,559,558,560,564,566,564,567,566,568,569,568,565,569,567,567,566,566,566,566,567
9322,0.0037841796875,-0.0423583984375,0.9879150390625,2.01416015625,2.01416015625,2.74658203125,635,617,600,588,574,560,550,540,531,521,515,509,500,493,489,484,480,482,479,475,472,467,464,463,463,460,457,457,456,454,453,451,450,447,448,446,444,446,444,444,445,443,440,448,450,447,446,443,442,444,445,445,470,488,502,516,522,533,537,547,551,553,556,558,561,562,563,565,564,563,565,567,567,566,566,568,568,568,569,566
9332,0.0037841796875,-0.0435791015625,0.9891357421875,2.01416015625,2.0751953125,2.74658203125,643,624,610,595,583,568,559,546,539,528,524,515,505,501,496,492,487,481,478,474,472,468,464,465,470,469,464,464,458,461,462,461,458,457,454,453,452,451,452,452,449,446,448,447,446,445,445,445,445,444,460,484,501,515,527,534,543,547,551,558,560,564,565,566,569,570,571,569,572,568,567,570,567,568,569,570,569,570,567,570
9342,0.0054931640625,-0.0433349609375,0.987060546875,2.0751953125,2.0751953125,2.8076171875,641,621,606,592,578,564,556,544,534,528,519,509,503,496,493,486,480,475,474,469,465,461,461,457,456,450,458,455,453,453,449,450,452,451,449,446,444,443,442,442,441,434,438,438,436,434,438,435,436,435,441,464,481,498,511,520,529,536,539,544,546,550,554,557,558,558,559,560,562,562,562,563,565,564,565,567,567,566,566,566
9352,0.0052490234375,-0.043701171875,0.9873046875,1.953125,2.13623046875,2.62451171875,646,624,610,596,580,571,559,546,540,530,526,517,510,502,497,493,489,480,478,475,472,469,465,461,462,459,456,455,452,452,458,457,455,452,452,451,453,454,450,450,450,447,446,442,444,444,442,444,441,442,461,481,497,513,522,534,539,544,549,554,556,557,561,561,561,562,563,567,565,568,563,568,567,566,567,568,568,568,570,567
9362,0.0042724609375,-0.043701171875,0.9886474609375,1.77001953125,2.01416015625,2.74658203125,643,626,610,594,582,567,557,549,541,531,523,512,505,502,499,490,488,484,478,472,469,468,466,460,459,455,455,452,452,451,447,445,446,452,451,450,446,446,446,448,449,447,446,443,443,439,442,440,440,439,452,475,490,503,515,522,531,537,543,543,549,551,552,552,555,554,558,556,556,560,561,559,563,559,560,564,563,564,565,565
9371,0.0047607421875,-0.0421142578125,0.9892578125,2.01416015625,2.01416015625,2.74658203125,647,630,610,595,584,569,557,545,541,533,524,515,505,501,499,493,488,481,478,474,468,465,464,461,459,456,454,452,452,447,445,448,446,443,452,451,449,447,444,444,449,448,445,446,443,439,443,441,442,441,442,457,478,498,507,524,527,535,543,547,553,556,558,559,561,563,564,566,565,566,565,569,566,567,568,569,569,567,570,568
9381,0.003662109375,-0.043212890625,0.9886474609375,2.0751953125,2.01416015625,2.74658203125,649,628,616,595,588,572,559,550,539,530,523,516,508,503,504,502,495,487,485,479,481,477,474,471,469,467,462,464,460,457,457,455,453,453,451,451,448,449,446,446,457,454,454,452,451,451,452,452,452,449,472,494,509,523,540,540,551,552,556,559,562,563,569,569,569,570,570,569,572,568,570,572,571,574,573,574,569,571,574,572
9391,0.0045166015625,-0.0426025390625,0.9871826171875,1.89208984375,1.953125,2.74658203125,654,633,616,603,588,574,563,554,544,537,527,521,511,508,508,503,496,488,486,484,481,479,478,473,469,467,463,464,461,458,459,455,451,453,453,452,451,451,448,451,447,451,450,452,451,450,448,455,454,452,449,479,496,512,520,537,541,550,553,559,562,563,567,567,572,574,573,573,573,574,573,578,575,575,575,573,574,572,577,575
9401,0.0045166015625,-0.043701171875,0.9874267578125,1.89208984375,2.01416015625,2.5634765625,652,633,615,601,587,573,564,551,544,534,524,519,513,503,502,495,491,487,479,481,483,479,475,474,470,467,468,470,468,463,459,459,458,459,456,456,452,451,452,451,449,451,450,449,447,447,455,455,452,453,475,496,509,524,534,542,549,552,557,562,566,564,567,570,573,571,573,574,571,573,574,572,577,569,573,573,574,573,574,575
9411,0.005126953125,-0.0435791015625,0.9888916015625,1.89208984375,2.01416015625,2.74658203125,645,624,610,595,582,571,558,545,538,526,520,514,506,498,495,488,481,481,474,473,469,463,472,468,467,464,460,459,463,463,457,454,454,454,452,451,448,447,448,447,447,445,443,443,444,444,444,442,451,450,462,481,500,514,523,536,542,548,552,558,557,560,564,562,565,567,567,567,567,567,568,567,568,575,565,567,567,567,569,570
9421,0.005126953125,-0.0435791015625,0.98876953125,2.01416015625,2.13623046875,2.74658203125,641,623,609,594,578,564,555,545,536,524,520,511,503,498,491,488,484,480,474,473,467,464,473,467,464,462,459,459,457,456,454,456,453,449,451,449,445,445,445,444,444,443,442,443,438,441,440,438,448,446,447,457,482,497,511,521,530,536,542,548,549,555,556,560,561,564,564,565,563,566,566,565,569,569,572,567,570,569,569,568
9431,0.004638671875,-0.043212890625,0.98779296875,1.89208984375,2.0751953125,2.74658203125,645,627,609,595,582,572,557,551,539,527,522,514,509,500,495,491,486,481,477,474,468,466,462,463,461,466,464,459,457,457,455,458,455,456,456,453,450,448,452,449,447,447,443,444,443,443,442,441,441,442,443,451,476,494,510,519,532,536,543,547,552,557,558,560,566,563,566,565,565,568,570,570,567,568,569,570,569,570,568,571
9441,0.00439453125,-0.0428466796875,0.9884033203125,1.89208984375,2.01416015625,2.74658203125,641,622,609,592,578,565,555,542,533,524,517,512,506,499,493,488,482,478,474,471,465,460,462,458,455,453,449,448,448,447,445,450,447,447,443,444,441,443,444,442,440,437,437,437,438,438,434,435,435,435,452,475,489,502,517,524,534,540,542,548,551,553,556,555,557,558,559,558,559,562,561,559,560,562,564,565,562,563,563,563
9451,0.00439453125,-0.0423583984375,0.989013671875,1.77001953125,2.0751953125,2.74658203125,646,626,610,596,580,569,558,550,538,529,524,515,510,502,499,493,485,481,477,473,471,467,466,462,460,458,455,453,451,449,445,446,454,450,447,446,448,446,443,449,446,445,442,442,443,439,441,440,439,440,445,468,490,503,514,525,532,540,544,552,550,557,560,559,563,564,563,568,564,566,567,564,566,567,570,566,566,569,565,568
9460,0.0040283203125,-0.043701171875,0.988525390625,2.0751953125,1.953125,2.685546875,640,621,607,587,578,563,550,542,532,521,514,512,504,499,492,485,482,481,477,472,469,464,465,461,459,454,454,451,449,449,446,447,444,445,441,440,437,446,446,444,443,442,441,447,444,440,442,442,439,439,456,475,496,505,519,528,534,541,545,546,550,553,552,556,556,560,558,562,559,560,560,560,563,561,562,563,564,566,565,563
9470,0.004638671875,-0.0430908203125,0.989501953125,1.953125,1.953125,2.74658203125,639,623,607,593,579,565,556,545,532,527,518,510,503,497,497,491,487,479,474,471,475,471,466,464,461,459,458,453,451,452,451,449,444,443,445,443,444,441,441,440,448,443,444,442,439,440,443,444,441,439,451,475,493,507,518,525,533,537,543,549,548,552,555,555,559,558,559,561,558,563,562,562,563,563,566,565,566,566,563,568
9480,0.004638671875,-0.0433349609375,0.9893798828125,1.953125,2.0751953125,2.685546875,639,624,606,591,578,564,553,545,536,526,514,510,502,498,492,487,482,483,481,476,472,470,466,469,466,463,459,460,457,453,452,453,445,451,447,446,445,442,442,443,443,441,441,449,449,447,446,445,443,447,457,480,494,510,521,529,534,541,545,552,555,557,559,560,564,560,563,566,566,566,567,568,568,568,570,567,567,569,569,569
9490,0.0054931640625,-0.0428466796875,0.9888916015625,1.953125,2.0751953125,2.62451171875,644,631,611,595,583,573,559,546,540,529,517,514,509,501,497,492,487,483,485,479,477,473,470,465,472,465,465,463,462,457,455,457,454,453,452,449,451,449,447,445,445,446,444,444,452,451,448,449,447,447,452,462,486,503,517,524,534,543,549,556,556,557,561,562,563,565,568,569,566,567,569,569,572,568,570,569,567,570,570,572
9500,0.0048828125,-0.0435791015625,0.9881591796875,1.8310546875,2.0751953125,2.685546875,642,626,607,595,581,569,554,546,537,526,519,511,501,500,492,487,482,479,472,472,468,465,463,468,464,463,460,458,456,458,458,456,455,455,450,450,448,447,447,447,445,445,442,440,443,442,440,439,440,449,460,487,499,514,523,529,539,543,547,553,555,559,558,562,563,561,563,563,567,563,568,566,566,567,567,567,571,567,569,569
9510,0.00390625,-0.042724609375,0.988037109375,1.708984375,1.89208984375,2.74658203125,647,629,610,598,584,572,562,551,541,532,524,517,511,505,497,495,490,484,478,476,475,469,467,465,461,462,467,463,459,460,459,458,461,460,456,456,455,454,451,450,450,450,450,446,447,447,448,446,445,445,470,486,507,514,523,535,541,547,557,556,561,562,562,566,566,567,571,567,565,564,565,566,565,567,565,563,565,566,567,566
9520,0.005859375,-0.0447998046875,0.98974609375,1.8310546875,2.01416015625,2.685546875,643,626,609,598,584,570,555,547,538,528,521,512,505,501,495,489,482,479,477,471,467,465,462,458,458,457,453,450,456,457,451,454,450,448,449,448,447,446,441,444,441,438,440,439,439,439,441,437,439,435,453,477,494,510,519,529,532,541,544,549,551,554,552,552,555,553,554,556,557,560,557,559,559,558,561,562,560,560,560,561
9530,0.0045166015625,-0.0428466796875,0.9896240234375,2.0751953125,2.0751953125,2.74658203125,648,629,613,595,586,572,564,553,543,533,526,519,510,505,499,496,490,485,480,478,474,471,469,463,464,462,459,458,454,456,452,451,458,459,455,451,451,451,451,451,451,448,446,445,447,445,445,442,445,444,469,487,508,516,530,534,543,548,552,556,561,559,563,563,566,567,566,566,572,567,573,568,570,568,572,570,575,572,570,573
9540,0.0045166015625,-0.0445556640625,0.9896240234375,1.953125,1.8310546875,2.62451171875,646,629,610,598,584,567,558,546,538,528,523,514,508,503,496,489,491,483,480,478,472,467,465,463,461,457,454,455,452,451,449,449,446,445,444,441,451,451,447,446,447,446,450,447,448,446,445,445,443,442,462,484,501,519,522,532,542,545,549,551,556,561,559,561,562,563,564,565,564,571,563,567,565,567,564,563,566,564,568,570
9549,0.00439453125,-0.0426025390625,0.989013671875,1.953125,1.953125,2.5634765625,643,626,610,594,580,566,555,545,534,528,516,511,511,503,497,494,488,482,484,480,476,469,469,466,462,460,458,458,455,451,452,451,450,448,449,446,446,446,454,451,452,447,447,448,449,447,446,445,444,446,453,473,494,509,521,531,538,544,545,551,553,556,561,560,563,562,562,564,563,566,571,565,568,567,566,566,567,568,569,570
9559,0.004150390625,-0.0419921875,0.989013671875,1.953125,2.01416015625,2.62451171875,640,623,609,592,579,564,556,545,535,525,516,512,504,499,501,493,487,484,480,477,472,473,469,467,465,462,459,457,457,451,454,451,449,449,446,446,444,446,443,442,451,448,450,449,446,445,443,445,447,445,448,472,495,508,520,528,536,545,547,553,555,555,559,564,560,565,564,566,564,567,565,566,566,568,567,566,567,564,565,568
9569,0.0040283203125,-0.0423583984375,0.98828125,1.89208984375,2.01416015625,2.685546875,645,630,611,595,580,566,557,547,537,528,520,511,505,500,494,488,483,480,483,478,475,471,467,464,463,461,461,458,457,453,453,453,450,451,450,447,444,444,445,445,444,441,444,443,441,447,445,447,445,444,463,483,499,511,523,529,542,543,548,553,558,558,561,563,562,567,567,567,569,568,570,569,570,569,572,568,567,568,569,569
9579,0.0048828125,-0.043212890625,0.989013671875,1.953125,2.01416015625,2.685546875,640,621,608,595,577,564,555,543,534,526,516,510,503,498,493,487,483,477,475,470,468,463,466,464,463,462,457,455,455,458,454,453,449,449,449,449,443,445,444,445,440,443,441,441,439,440,440,439,448,447,460,481,497,509,521,529,536,542,543,549,550,555,558,558,558,562,560,562,560,562,563,566,562,567,563,566,564,564,562,565
9589,0.004638671875,-0.043701171875,0.9901123046875,2.01416015625,1.953125,2.74658203125,644,628,609,597,584,569,559,548,536,529,521,512,508,499,495,488,487,482,478,473,471,468,466,469,467,463,462,460,458,460,461,456,452,456,454,451,451,451,449,448,449,449,446,447,445,444,444,443,442,450,449,466,491,503,519,527,533,540,547,550,555,559,559,559,563,565,562,565,564,564,567,568,567,567,571,569,569,568,568,569
9599,0.0050048828125,-0.042724609375,0.9901123046875,2.0751953125,2.0751953125,2.74658203125,641,623,608,590,580,567,557,543,535,527,519,511,503,495,492,485,480,477,472,469,466,463,460,457,454,459,458,455,451,449,449,453,450,449,447,446,444,442,445,442,441,439,442,440,439,437,436,437,436,438,437,448,472,492,506,521,528,538,543,545,549,558,556,561,561,564,563,565,566,565,567,568,568,568,568,567,569,568,569,571
9609,0.004638671875,-0.044189453125,0.989013671875,2.01416015625,2.197265625,2.74658203125,648,625,611,597,583,572,561,550,540,529,521,520,513,505,497,494,488,487,482,478,474,469,466,466,464,461,457,458,455,456,451,459,457,459,457,453,452,454,455,455,453,447,451,450,451,448,447,448,447,447,464,483,504,517,529,534,544,550,556,560,562,567,569,567,570,573,575,575,574,575,579,575,579,578,578,575,580,578,579,577
9619,0.00439453125,-0.0423583984375,0.98876953125,2.01416015625,2.13623046875,2.8076171875,651,629,614,600,586,573,561,553,546,537,531,520,514,511,506,502,495,489,485,483,479,476,474,470,465,463,463,461,460,458,454,456,454,461,458,458,457,456,453,460,456,457,456,456,451,454,452,452,449,450,455,482,498,518,528,534,546,550,555,559,561,565,565,568,569,571,569,572,572,575,572,572,572,572,571,574,572,575,572,574
9628,0.003662109375,-0.0426025390625,0.989013671875,1.8310546875,2.01416015625,2.685546875,651,631,616,598,587,573,561,552,541,532,526,524,516,511,507,500,495,496,490,488,483,480,477,475,472,467,466,466,464,463,459,459,459,457,455,453,454,463,460,461,460,460,457,463,460,458,459,457,458,455,473,495,511,525,535,544,551,553,561,559,565,568,565,571,567,572,572,571,572,575,573,575,575,573,573,572,572,569,570,569
9638,0.004150390625,-0.0419921875,0.990966796875,2.01416015625,2.0751953125,2.685546875,648,630,611,598,583,572,559,548,541,530,526,515,511,505,504,499,495,486,485,483,484,480,477,474,469,469,466,462,459,458,454,457,455,452,451,451,451,449,450,447,458,457,454,454,452,453,455,457,453,452,467,489,507,519,532,539,546,551,556,560,562,562,566,568,567,569,570,568,571,572,572,572,573,572,572,575,574,574,572,570
9648,0.00390625,-0.042724609375,0.9952392578125,1.89208984375,2.0751953125,2.74658203125,642,621,609,591,577,565,553,543,531,524,517,510,503,497,489,486,480,484,481,475,473,467,465,466,465,460,459,457,450,451,452,450,449,445,443,443,443,442,438,438,439,438,436,443,443,442,441,439,440,440,455,473,492,504,515,530,532,537,545,547,551,556,559,560,562,565,567,566,568,568,568,569,569,571,571,572,572,573,574,573
9658,0.0048828125,-0.042724609375,0.9927978515625,2.01416015625,2.13623046875,2.74658203125,653,636,619,603,587,576,564,553,544,532,525,515,508,505,495,493,487,484,488,481,479,475,473,468,470,469,465,465,462,459,458,455,455,453,451,449,448,448,448,447,444,443,447,444,454,449,450,450,448,446,452,470,489,506,520,531,543,543,552,554,559,560,564,567,567,567,570,569,569,571,568,568,571,572,571,570,571,570,570,568
9668,0.0048828125,-0.044189453125,0.98779296875,2.13623046875,2.13623046875,2.8076171875,647,630,617,600,587,573,557,550,539,531,521,515,510,504,497,494,488,483,477,477,473,477,475,471,467,466,463,465,464,462,459,455,459,455,454,453,449,451,448,451,446,445,446,443,446,443,447,450,449,448,449,473,486,504,519,530,535,548,548,554,553,559,561,562,568,569,567,568,570,570,569,568,570,577,569,568,568,570,571,571
9678,0.00439453125,-0.0430908203125,0.983642578125,2.01416015625,2.0751953125,2.86865234375,654,633,617,603,585,574,564,554,542,533,525,517,511,506,498,494,487,483,478,474,473,467,469,461,460,458,461,461,459,455,453,455,456,455,453,449,447,445,446,445,445,443,440,441,439,442,441,439,439,439,465,482,497,511,525,530,540,544,549,551,558,557,557,563,563,564,565,563,567,564,566,565,567,568,570,568,570,566,569,566
9688,0.0028076171875,-0.04345703125,0.9842529296875,1.953125,1.953125,2.8076171875,651,630,613,599,584,573,561,549,540,531,521,516,510,500,496,491,484,481,472,474,469,467,464,461,458,465,462,464,456,457,455,455,454,453,451,448,445,447,448,445,443,442,445,441,443,441,440,442,441,440,448,447,467,491,505,519,529,536,546,550,550,557,558,563,562,566,567,570,566,570,567,571,569,571,570,575,570,572,571,569
9698,0.003662109375,-0.0423583984375,0.9921875,1.953125,2.0751953125,2.685546875,653,637,620,599,589,578,562,555,544,535,529,522,514,508,503,497,492,485,484,479,475,471,468,466,463,462,457,458,454,455,461,456,454,454,453,452,457,455,451,451,452,449,447,449,447,447,445,443,446,444,446,474,492,511,521,533,541,546,552,555,561,563,565,567,569,569,569,571,569,574,575,571,573,574,575,574,578,579,576,577
9708,0.0048828125,-0.0423583984375,0.9971923828125,1.89208984375,2.13623046875,2.8076171875,654,637,622,605,593,579,569,563,551,545,539,532,527,527,521,517,511,508,504,499,499,494,490,489,484,479,480,472,477,473,470,469,468,478,474,475,471,469,469,471,473,468,468,468,465,465,466,466,464,465,467,491,510,526,537,545,551,561,564,570,571,572,572,575,575,578,577,579,579,580,578,579,577,576,579,578,582,580,581,582
9717,0.006591796875,-0.04296875,0.9893798828125,2.01416015625,1.953125,2.74658203125,659,643,625,611,596,582,572,559,548,542,534,523,522,518,510,504,501,495,494,491,485,483,480,474,473,471,469,466,462,465,461,460,456,458,456,454,455,453,461,460,457,456,455,455,460,455,458,458,455,454,477,495,511,523,534,543,551,554,557,561,565,567,570,570,571,573,572,575,575,574,575,573,575,577,573,577,577,576,576,575
9727,0.00537109375,-0.042724609375,0.9847412109375,1.953125,1.953125,2.62451171875,654,637,622,603,589,575,564,552,545,533,527,519,511,506,504,499,494,490,482,480,481,474,470,470,468,463,462,462,460,457,454,454,452,451,449,449,448,446,446,445,453,452,452,449,447,447,451,451,449,448,456,479,496,512,521,531,537,545,549,554,559,562,564,564,567,570,569,571,573,573,575,573,572,573,574,576,575,574,572,574
9737,0.00439453125,-0.0430908203125,0.98779296875,1.953125,1.708984375,2.62451171875,654,635,619,606,587,576,563,552,542,532,526,515,509,505,497,490,495,488,485,478,476,471,475,470,468,464,460,459,457,454,451,452,450,449,447,446,445,444,446,442,443,441,452,448,446,443,441,444,446,447,446,464,482,501,515,524,531,538,544,546,552,553,557,554,560,561,565,563,565,568,568,569,565,569,570,567,566,569,568,569
9747,0.0037841796875,-0.042724609375,0.9930419921875,2.01416015625,1.8310546875,2.86865234375,650,632,614,599,585,574,560,551,538,531,521,512,508,499,494,491,487,482,481,478,473,470,467,466,465,465,462,459,457,451,455,455,450,447,449,447,446,442,444,443,444,439,441,441,448,448,446,443,444,443,446,450,474,494,505,519,529,536,543,548,552,555,557,559,560,562,566,568,569,566,569,569,567,569,570,570,571,570,573,571
9757,0.0057373046875,-0.04296875,0.9945068359375,1.89208984375,1.953125,2.8076171875,651,631,614,600,587,575,563,551,539,532,523,513,508,501,495,490,485,482,478,473,472,469,466,472,472,467,465,463,463,460,463,464,462,461,461,458,459,459,456,455,455,457,455,454,454,453,452,451,452,458,471,494,511,522,531,540,542,546,552,556,555,557,557,556,558,559,560,560,561,560,557,560,560,562,562,557,561,558,560,560
9767,0.0050048828125,-0.04345703125,0.991455078125,1.77001953125,2.01416015625,2.685546875,645,628,611,595,584,569,555,545,539,528,517,510,503,494,491,486,479,475,469,467,464,459,459,457,452,451,457,454,450,446,447,444,443,441,444,442,439,438,439,436,435,436,432,433,432,431,433,432,430,432,447,468,487,503,511,519,527,534,540,543,546,549,551,550,554,557,560,560,558,560,561,561,563,562,565,564,562,558,562,564
9777,0.0047607421875,-0.04248046875,0.9891357421875,1.953125,1.89208984375,2.5634765625,649,631,612,600,588,574,560,552,539,530,524,516,508,502,495,487,483,477,473,469,463,463,459,455,454,451,445,447,445,441,449,446,445,445,442,440,443,439,439,439,437,435,433,435,433,432,431,428,430,426,447,469,484,498,509,518,525,532,538,543,548,549,553,552,554,558,557,559,560,560,562,559,560,562,561,563,561,561,564,560
9787,0.0045166015625,-0.04345703125,0.991455078125,2.0751953125,1.953125,2.685546875,645,629,611,597,582,570,556,551,540,531,520,511,508,504,497,490,484,477,472,472,467,462,458,455,454,451,450,444,444,442,441,438,438,445,444,441,440,435,436,441,440,435,435,435,434,435,433,430,429,430,443,463,483,497,508,517,524,529,539,542,545,548,551,555,556,556,558,561,561,561,561,566,564,563,565,566,566,564,563,567
9796,0.002685546875,-0.04345703125,0.9920654296875,2.01416015625,1.89208984375,2.62451171875,652,632,616,600,584,573,563,549,540,531,524,522,513,507,499,494,490,489,488,481,478,474,472,467,467,465,461,461,458,456,453,457,454,453,449,449,452,455,454,451,451,451,450,454,452,453,451,451,447,448,469,489,507,518,530,537,543,547,551,557,557,562,563,566,566,565,565,566,567,567,567,570,570,569,568,569,567,569,570,572
9806,0.0035400390625,-0.0426025390625,0.9912109375,2.0751953125,1.953125,2.9296875,650,631,613,601,582,573,562,548,542,527,522,513,505,500,500,494,489,482,479,477,477,473,469,467,465,459,460,457,455,454,452,450,451,447,447,446,445,446,446,444,452,450,449,446,447,447,451,447,445,444,462,481,498,509,517,532,535,542,548,551,557,556,560,561,560,564,564,568,566,565,567,566,564,568,567,567,568,568,568,567
9816,0.00341796875,-0.04443359375,0.9906005859375,2.0751953125,2.0751953125,2.86865234375,649,630,612,597,583,573,559,545,537,529,521,511,506,498,492,485,483,486,479,475,470,468,464,465,461,462,459,458,453,449,451,447,447,444,442,441,442,442,437,440,437,438,435,442,441,440,442,440,435,441,454,474,490,503,513,528,530,536,542,546,549,551,553,556,556,556,558,557,560,559,559,561,561,561,559,561,561,564,561,559
9826,0.0035400390625,-0.0426025390625,0.9903564453125,2.01416015625,1.953125,2.74658203125,645,626,610,595,578,568,555,543,535,526,515,511,506,497,491,486,481,476,472,476,472,467,463,459,457,461,457,455,448,450,448,448,446,443,444,440,442,438,438,437,435,436,435,435,435,440,439,441,440,438,450,468,487,502,512,525,537,536,542,549,548,553,556,557,558,559,561,560,563,562,563,565,564,564,566,564,566,564,563,562
9836,0.004638671875,-0.042724609375,0.9903564453125,1.89208984375,1.8310546875,2.685546875,645,627,612,593,582,569,553,544,535,525,517,509,502,497,489,483,480,475,469,465,469,466,463,458,454,453,449,449,448,445,443,441,440,439,438,435,437,434,433,433,431,431,431,433,429,432,439,437,436,437,432,455,469,485,500,505,519,530,531,538,541,547,549,550,552,555,554,554,557,557,557,558,558,560,560,562,562,562,562,564
9846,0.0042724609375,-0.043701171875,0.9913330078125,1.8310546875,2.13623046875,2.685546875,644,623,606,596,581,565,560,547,536,526,518,511,500,495,491,485,478,475,470,469,463,459,459,456,451,451,451,452,449,447,443,444,450,444,445,442,441,439,438,439,439,437,435,433,435,435,431,433,433,433,459,472,493,503,515,522,532,538,547,546,552,556,557,558,560,562,565,562,563,565,567,564,563,567,565,565,566,567,568,568
9856,0.0057373046875,-0.0433349609375,0.9915771484375,1.77001953125,2.197265625,2.685546875,649,631,616,602,587,574,559,549,541,533,528,517,510,503,496,492,487,482,479,473,469,465,463,462,459,455,455,452,448,453,454,451,450,448,445,448,447,445,444,443,440,441,442,436,439,438,436,434,433,435,452,472,488,508,512,526,529,536,544,551,550,555,558,557,559,562,561,565,561,561,564,564,565,565,561,561,565,563,565,563
9866,0.0052490234375,-0.042724609375,0.9901123046875,1.77001953125,2.197265625,2.74658203125,648,630,614,596,580,570,561,548,540,529,521,511,505,501,494,490,483,479,475,471,467,462,461,457,454,452,451,449,447,444,443,443,451,450,444,445,442,440,440,443,441,441,438,434,437,435,436,434,431,434,457,475,497,502,517,527,532,538,544,548,553,551,556,557,557,559,560,560,555,561,561,564,561,562,561,563,566,561,562,564
9876,0.005859375,-0.0428466796875,0.9901123046875,1.953125,2.13623046875,2.62451171875,645,625,610,595,582,570,561,548,540,532,523,515,511,501,497,493,485,483,477,473,467,468,463,460,456,455,454,451,447,448,448,445,450,448,446,447,444,443,445,446,444,444,443,441,443,437,439,438,438,436,437,440,463,485,497,511,521,525,533,540,546,550,553,558,555,558,557,560,561,564,562,563,565,564,567,565,565,570,564,564
9885,0.00439453125,-0.042724609375,0.9906005859375,2.01416015625,1.8310546875,2.62451171875,642,626,607,596,580,567,554,542,535,528,517,510,509,504,494,491,483,483,481,478,471,470,468,464,461,455,454,451,452,449,446,446,444,446,443,440,441,438,445,445,443,444,441,441,444,442,443,442,441,440,447,466,486,500,515,520,534,536,542,546,547,551,557,554,559,558,560,563,563,565,569,564,565,565,566,564,567,566,568,569
9895,0.005615234375,-0.041748046875,0.991943359375,1.77001953125,1.953125,2.74658203125,651,632,617,602,587,575,562,551,541,533,520,516,509,504,504,496,491,487,484,476,476,475,472,467,465,463,459,457,456,451,453,450,447,449,446,444,443,443,443,444,449,447,445,447,446,444,446,442,448,447,448,474,490,504,517,528,535,541,546,547,551,555,556,563,562,565,561,559,564,564,564,569,565,567,563,563,563,562,566,568
9905,0.0045166015625,-0.042724609375,0.991943359375,1.77001953125,1.953125,2.685546875,644,626,609,593,581,567,555,544,537,527,520,511,505,496,492,486,482,478,478,477,474,469,466,462,459,463,460,460,455,455,452,452,448,446,445,445,442,444,442,440,438,440,440,437,444,447,445,442,441,442,457,479,495,508,517,530,537,542,548,553,554,557,559,561,561,565,566,568,566,566,569,568,571,568,570,571,568,568,569,570
9915,0.0048828125,-0.0428466796875,0.9908447265625,1.89208984375,1.953125,2.8076171875,649,633,617,602,588,573,561,552,542,532,526,516,510,503,500,495,491,484,482,476,474,477,475,473,468,466,463,463,462,461,460,455,453,455,453,451,447,448,448,446,445,445,445,444,444,445,444,444,450,450,463,488,502,518,528,535,541,551,554,557,562,563,564,567,566,569,570,571,571,571,571,572,571,577,573,573,571,575,573,571
9925,0.00439453125,-0.0430908203125,0.9901123046875,1.953125,2.01416015625,2.74658203125,647,629,613,596,584,571,557,548,539,527,520,512,505,500,493,489,483,481,477,473,470,465,464,468,468,463,459,459,457,458,455,454,452,451,448,448,448,446,446,443,442,441,442,443,442,441,438,439,448,447,446,457,481,495,511,521,529,537,542,548,551,555,558,560,563,564,565,564,564,568,568,566,570,569,570,570,571,569,570,569
9935,0.0052490234375,-0.0430908203125,0.9918212890625,1.89208984375,2.0751953125,2.8076171875,649,632,613,600,585,575,562,551,542,531,526,517,509,503,496,493,482,481,478,475,471,467,466,463,461,463,462,461,458,455,455,459,457,455,454,451,450,450,448,447,444,444,443,445,443,442,442,439,439,440,441,459,478,497,511,523,529,538,546,549,552,556,557,562,563,564,565,567,566,566,564,567,568,567,567,570,568,571,568,569
9945,0.0040283203125,-0.0443115234375,0.9918212890625,1.953125,2.0751953125,2.74658203125,645,628,612,595,580,571,559,549,538,526,519,516,509,503,495,490,487,482,477,473,470,466,463,461,461,455,455,453,450,450,450,455,451,450,450,450,447,448,450,448,449,447,446,444,445,445,445,442,442,442,461,479,500,511,525,531,539,544,548,552,554,558,560,562,563,563,566,567,568,567,570,568,573,571,572,571,572,572,569,568
9955,0.0042724609375,-0.0418701171875,0.9951171875,1.89208984375,2.01416015625,2.62451171875,647,628,614,597,583,569,558,552,539,531,525,518,508,503,501,492,489,484,482,474,474,469,464,464,461,459,457,455,452,452,451,447,449,456,455,450,450,450,446,453,451,450,447,447,447,444,445,442,442,442,450,472,490,506,518,528,534,543,545,550,553,557,558,559,561,562,564,567,565,565,566,565,568,567,565,567,568,569,568,568
9964,0.003662109375,-0.0416259765625,0.9910888671875,2.01416015625,1.953125,2.685546875,645,627,608,596,581,566,557,545,535,526,524,517,507,501,496,490,486,484,481,477,474,465,467,461,461,458,456,453,454,451,448,449,447,447,446,445,450,452,448,447,447,446,446,449,447,446,444,445,445,443,456,482,495,510,519,529,536,542,548,551,554,558,559,562,559,565,566,564,565,567,568,569,570,571,571,570,569,571,571,574
9974,0.003662109375,-0.0418701171875,0.988525390625,1.77001953125,2.25830078125,2.74658203125,654,633,619,602,587,576,563,550,544,535,525,516,511,511,503,499,493,490,485,481,481,479,475,473,468,468,466,463,460,459,457,456,453,453,452,451,450,451,447,458,457,454,454,453,452,451,452,453,451,452,462,484,504,515,528,537,546,551,556,561,562,565,568,570,569,571,569,572,572,571,574,575,573,573,575,574,571,572,573,575
9984,0.00439453125,-0.0435791015625,0.9908447265625,1.89208984375,2.01416015625,2.8076171875,651,632,618,600,585,574,566,549,544,534,523,518,511,504,500,499,496,491,483,482,479,480,478,472,471,469,464,463,462,461,456,456,455,453,453,451,452,451,450,445,448,457,457,454,453,452,451,453,453,451,452,466,483,503,516,534,538,542,548,553,559,560,562,565,565,569,570,570,569,568,572,573,573,574,571,575,576,574,574,574
9994,0.00341796875,-0.0439453125,0.9945068359375,1.89208984375,2.01416015625,2.8076171875,656,637,621,606,590,577,564,555,544,535,528,520,515,508,504,497,493,487,489,486,481,478,474,472,476,472,467,468,464,461,462,459,459,456,454,455,454,451,451,450,449,447,446,455,454,454,453,450,452,451,456,468,490,506,522,530,546,544,550,557,558,564,568,566,569,571,572,569,573,573,573,573,572,574,574,574,575,575,575,576
10004,0.0029296875,-0.0443115234375,0.994384765625,1.8310546875,2.01416015625,2.62451171875,653,635,616,603,588,577,565,553,544,538,526,520,509,506,500,495,489,486,482,480,476,469,470,471,467,467,465,459,459,462,462,460,457,455,455,454,453,453,448,452,449,449,447,444,446,447,446,445,443,454,465,493,502,517,530,539,546,553,556,559,563,565,568,567,567,572,570,574,574,576,575,574,575,576,575,576,575,578,575,575
10014,0.004638671875,-0.043701171875,0.995361328125,1.708984375,2.01416015625,2.685546875,657,635,620,608,593,578,569,558,548,540,531,521,514,511,505,497,492,491,487,481,480,475,476,472,467,467,470,470,467,465,462,461,465,463,460,461,459,457,457,456,456,454,455,452,454,453,450,452,451,452,475,494,509,524,533,541,547,555,563,561,568,568,567,572,574,573,575,574,573,575,575,578,577,572,575,575,575,578,576,575
10024,0.004638671875,-0.0435791015625,0.994140625,1.953125,1.953125,2.685546875,652,633,615,603,590,577,565,553,543,539,530,523,516,509,503,497,492,487,483,481,478,475,469,466,467,464,463,459,461,463,463,460,460,457,454,458,459,457,457,453,454,453,452,448,452,449,447,447,447,448,466,487,504,521,529,540,543,553,557,562,562,569,566,566,567,570,570,573,570,573,574,574,572,573,576,574,575,574,576,576
10034,0.0037841796875,-0.0419921875,0.9935302734375,1.89208984375,2.01416015625,2.8076171875,657,637,619,607,590,578,571,560,549,540,531,523,515,511,507,500,494,489,483,483,480,476,472,468,468,466,463,462,462,458,456,456,461,462,459,455,458,456,456,456,455,455,453,451,449,452,450,449,448,447,476,496,510,522,537,543,550,554,559,561,567,569,574,572,572,573,573,574,577,572,576,573,573,576,575,576,576,577,576,578
10044,0.005615234375,-0.0426025390625,0.9927978515625,1.953125,2.197265625,2.685546875,656,637,621,605,591,579,565,561,551,540,534,524,516,514,508,502,497,493,489,484,478,477,473,471,469,465,465,463,461,458,459,457,454,461,461,459,458,459,456,458,460,456,455,453,457,455,454,453,447,451,451,476,494,511,526,537,546,550,558,563,563,569,570,571,574,574,577,576,576,578,580,580,579,580,579,578,581,580,578,582
10053,0.00439453125,-0.0428466796875,0.9891357421875,1.953125,2.0751953125,2.685546875,656,640,622,605,590,579,563,556,546,536,529,523,515,511,505,498,493,485,488,482,478,477,473,468,463,463,459,458,456,452,455,452,447,447,448,447,445,443,450,450,447,446,443,446,444,448,448,444,442,442,460,482,499,512,526,534,542,546,551,558,557,564,563,566,569,569,571,572,572,572,572,573,571,573,574,567,573,573,575,575
10063,0.0042724609375,-0.0435791015625,0.98876953125,1.89208984375,1.89208984375,2.62451171875,652,633,616,603,590,573,563,552,544,530,523,515,509,503,501,495,491,484,479,476,477,470,470,465,460,459,456,453,452,451,446,447,444,442,442,441,438,437,439,445,445,441,443,441,437,437,441,441,441,437,446,462,483,499,512,518,531,535,542,544,550,551,554,559,559,559,559,562,564,565,565,564,567,566,570,568,569,571,568,569
10073,0.004638671875,-0.04345703125,0.99169921875,1.89208984375,1.77001953125,2.8076171875,658,640,620,604,591,580,568,553,547,536,525,518,512,505,507,497,496,487,481,477,474,473,472,467,465,460,460,458,456,453,452,447,450,447,446,445,443,442,442,442,447,448,446,444,442,442,442,443,441,442,440,441,468,490,506,517,525,536,540,548,551,554,557,559,563,560,564,566,566,568,567,564,569,569,568,568,567,569,567,568
10083,0.0052490234375,-0.0439453125,0.9993896484375,1.89208984375,2.01416015625,2.50244140625,654,637,619,605,590,575,564,554,540,535,524,517,509,504,497,491,486,483,477,474,469,475,473,468,466,464,459,457,457,458,455,451,451,450,448,447,447,446,445,442,441,443,443,443,443,442,442,442,449,446,473,492,506,518,526,537,540,545,549,551,553,556,556,560,560,563,561,563,566,564,568,567,565,567,567,568,568,566,567,565
10093,0.0064697265625,-0.04150390625,0.990478515625,2.01416015625,2.01416015625,2.62451171875,650,629,615,599,585,571,561,551,539,530,521,513,506,499,493,488,478,479,474,470,466,465,459,457,454,457,455,449,450,448,446,447,447,446,444,443,440,437,439,437,436,434,430,434,433,434,431,432,431,443,461,479,494,509,519,526,534,540,548,549,554,556,556,559,560,562,564,564,565,566,569,569,568,571,571,571,572,569,576,572
10103,0.00439453125,-0.041748046875,0.9910888671875,1.953125,1.953125,2.74658203125,647,630,616,599,582,570,562,551,539,529,521,514,507,499,494,489,483,480,475,470,468,465,459,459,455,449,457,456,454,452,449,448,447,448,449,444,442,441,441,440,439,436,438,436,435,433,433,435,433,433,460,471,492,502,516,526,531,539,543,548,549,552,557,556,559,561,560,564,563,564,565,562,563,562,566,566,564,563,563,566
10113,0.0035400390625,-0.0426025390625,0.990478515625,1.89208984375,1.953125,2.86865234375,648,630,614,597,586,571,560,548,537,530,524,515,508,502,491,488,483,479,476,470,466,466,461,460,453,454,453,449,447,445,452,451,449,447,443,441,448,445,443,443,442,442,442,440,437,437,438,437,436,433,455,477,493,506,517,528,535,540,546,552,551,554,558,558,558,563,562,561,562,565,562,564,566,565,565,563,565,564,565,565
10123,0.00537109375,-0.04345703125,0.9918212890625,1.8310546875,2.0751953125,2.8076171875,644,630,611,595,577,568,562,549,539,527,519,511,505,502,496,490,485,479,473,470,466,464,460,459,453,451,451,451,446,445,444,443,442,447,443,445,440,440,439,443,444,441,437,439,439,439,438,435,436,433,451,475,493,507,519,525,532,535,543,545,552,552,555,558,559,561,562,563,563,564,562,565,564,564,563,567,564,564,567,564
10132,0.0050048828125,-0.0421142578125,0.99169921875,1.77001953125,1.8310546875,2.74658203125,650,632,616,599,587,574,563,553,539,533,524,517,509,504,499,493,486,480,475,473,470,467,465,459,458,455,454,452,450,449,445,444,452,449,448,447,443,444,444,444,442,439,438,441,441,438,438,436,435,434,436,443,468,491,502,518,522,530,538,545,548,555,553,558,557,560,560,563,561,567,565,566,568,564,567,567,567,571,567,564
10142,0.0048828125,-0.044189453125,0.9935302734375,1.8310546875,2.01416015625,2.74658203125,650,633,616,601,586,571,562,551,537,531,522,508,509,508,499,492,488,483,478,474,474,472,470,465,460,459,458,455,453,447,446,448,446,445,442,442,439,437,439,447,443,441,442,439,438,438,440,438,439,440,459,483,498,510,521,528,535,540,545,548,552,554,556,556,562,559,562,562,561,564,564,566,564,565,565,565,567,563,566,568
10152,0.00439453125,-0.0435791015625,0.9923095703125,1.8310546875,2.01416015625,2.86865234375,651,634,617,603,586,573,562,551,539,534,522,516,506,502,502,495,490,484,481,475,472,471,466,465,461,458,457,452,453,447,450,447,443,445,441,442,444,441,438,441,447,444,444,445,443,441,441,443,438,440,443,465,489,499,511,525,529,539,544,549,552,553,556,559,559,563,561,565,564,567,564,569,565,567,566,565,566,565,565,569
10162,0.0040283203125,-0.042236328125,0.9942626953125,1.8310546875,1.953125,2.74658203125,644,630,611,598,583,569,554,545,537,524,517,509,504,497,489,487,478,475,471,474,471,469,465,460,457,459,456,456,452,450,446,447,443,441,442,443,439,438,437,435,435,435,435,432,432,439,437,438,434,432,459,480,492,506,515,525,534,537,543,546,549,551,556,556,555,557,561,559,561,564,562,562,565,562,565,563,565,562,563,565
10172,0.001953125,-0.0438232421875,0.992919921875,1.89208984375,1.953125,2.86865234375,648,632,615,599,586,572,559,547,538,529,521,510,505,496,492,486,482,479,476,471,468,464,460,458,458,458,453,451,452,449,448,442,443,442,440,439,435,438,435,434,433,432,432,432,439,438,435,435,435,434,436,437,463,479,498,509,517,524,533,542,545,547,549,555,554,555,557,561,560,563,560,563,563,564,567,566,566,567,564,566
10182,0.0042724609375,-0.0418701171875,0.9935302734375,1.89208984375,2.01416015625,2.8076171875,648,628,613,597,585,569,560,546,537,528,517,511,506,499,492,486,481,474,472,467,466,459,459,455,460,455,452,449,447,447,448,447,444,442,443,442,440,438,437,436,434,435,435,431,431,432,432,430,427,430,447,467,486,499,511,520,528,532,538,542,544,547,550,552,555,557,557,557,558,558,560,560,563,563,565,563,565,564,562,565
10192,0.003662109375,-0.04296875,0.9913330078125,1.8310546875,1.953125,2.74658203125,650,634,614,598,585,572,561,549,539,527,521,512,507,500,494,489,481,478,475,469,468,463,462,457,455,454,460,455,454,451,450,449,447,446,444,445,442,441,442,440,439,437,439,438,436,437,434,437,435,435,447,472,490,505,513,524,533,539,544,547,552,555,555,561,562,563,562,565,566,566,566,567,565,569,568,566,566,567,566,568
10202,0.0032958984375,-0.041748046875,0.9931640625,1.8310546875,2.01416015625,2.685546875,652,632,616,602,588,574,563,552,541,535,526,518,511,505,499,491,487,481,477,471,469,466,464,462,457,454,450,450,449,457,453,451,448,447,445,444,449,445,445,443,442,441,440,437,436,438,436,436,435,433,449,470,487,499,514,521,530,535,541,547,550,554,553,558,557,560,562,562,563,565,564,564,563,566,564,565,566,567,568,566
10212,0.0028076171875,-0.042724609375,0.99609375,1.953125,2.13623046875,2.74658203125,655,636,617,604,589,578,567,557,548,536,526,517,512,511,500,495,490,487,479,478,473,471,463,463,461,457,455,452,451,449,449,449,456,452,451,450,447,444,445,447,445,447,442,445,444,440,442,439,437,437,451,476,500,506,519,528,535,544,545,549,559,556,560,559,563,563,565,568,567,566,569,567,568,571,569,569,571,569,571,568
10221,0.0047607421875,-0.0419921875,0.9945068359375,1.8310546875,2.13623046875,2.74658203125,653,632,615,601,589,573,562,551,546,534,525,518,511,505,501,493,491,484,480,473,472,468,463,461,459,454,454,451,449,446,446,444,441,444,449,447,443,445,444,440,447,446,444,443,441,440,440,436,437,436,434,457,475,497,507,519,526,534,541,542,548,556,553,556,559,558,562,561,562,560,563,565,565,567,566,566,567,567,566,568
10231,0.0054931640625,-0.0416259765625,0.9910888671875,1.89208984375,2.01416015625,2.74658203125,653,637,619,603,590,577,564,554,543,532,525,516,509,504,503,498,491,488,480,477,480,475,469,468,466,462,461,459,457,455,450,452,450,449,446,447,446,445,442,451,450,449,446,445,445,445,444,447,447,443,464,487,499,513,528,533,543,544,551,555,556,560,565,562,564,568,568,567,569,571,572,571,571,571,573,572,572,572,575,573
10241,0.0067138671875,-0.0421142578125,0.98876953125,1.953125,1.89208984375,2.685546875,651,634,615,602,588,572,562,550,540,531,522,512,508,502,502,496,488,485,479,476,472,471,468,467,462,458,458,453,453,451,450,447,444,444,444,442,441,437,438,438,447,446,444,443,442,442,439,438,441,441,436,462,483,499,510,525,528,542,542,545,551,556,557,564,561,565,566,564,564,566,567,572,567,567,567,568,569,565,567,571
10251,0.006591796875,-0.0433349609375,0.994873046875,1.89208984375,2.0751953125,2.74658203125,651,634,616,602,588,573,563,551,539,531,521,516,506,502,493,488,484,477,475,469,473,468,464,459,460,456,461,456,454,453,451,449,445,445,444,444,445,439,440,440,438,436,436,437,437,433,441,443,441,445,465,485,502,513,525,532,539,545,553,552,555,559,561,561,565,565,569,562,567,569,565,569,572,570,573,566,570,570,571,571
10261,0.00634765625,-0.044921875,0.994140625,1.89208984375,2.0751953125,2.8076171875,654,635,620,604,590,578,563,553,542,533,526,519,508,505,495,491,486,481,476,471,471,473,470,466,464,460,458,453,455,453,451,449,447,449,445,446,441,441,441,440,440,438,439,438,438,439,435,445,443,442,450,475,489,505,518,526,533,540,544,549,554,555,562,561,560,565,566,566,563,568,564,570,569,572,567,572,567,567,567,567
10271,0.00634765625,-0.042236328125,0.9969482421875,1.89208984375,2.0751953125,2.62451171875,654,635,617,604,589,576,565,555,543,534,525,519,509,505,495,494,487,484,480,473,471,468,465,463,461,465,463,459,461,457,454,455,453,450,449,449,447,447,445,445,440,439,442,441,440,439,440,440,437,441,467,484,505,516,526,535,541,547,553,557,559,559,563,566,569,569,567,569,569,570,572,570,573,573,576,571,576,575,572,574
10281,0.002685546875,-0.036865234375,0.9990234375,1.953125,2.01416015625,2.74658203125,656,634,622,607,589,580,567,557,548,536,529,522,511,507,500,497,489,487,480,480,474,472,465,465,462,468,466,463,460,458,456,455,457,453,456,455,451,458,461,464,470,481,490,501,512,523,532,539,546,552,557,596,617,632,638,641,645,648,649,647,649,648,649,650,644,645,647,644,642,648,645,647,647,647,645,647,644,648,644,648
10291,0.0037841796875,-0.044921875,0.9998779296875,2.13623046875,2.197265625,2.8076171875,667,649,630,615,601,588,574,563,551,542,537,531,522,514,509,503,496,493,487,484,478,476,473,469,467,465,465,461,458,465,464,462,459,455,456,455,451,455,453,451,448,450,449,449,445,445,444,445,444,441,450,472,492,506,521,532,540,546,553,557,559,562,567,567,567,570,569,574,573,574,575,575,578,576,576,575,576,577,577,578
10301,0.004150390625,-0.03955078125,0.9677734375,2.01416015625,2.01416015625,2.86865234375,663,643,625,611,596,582,570,564,551,542,534,525,517,513,508,503,496,493,487,484,480,477,472,472,469,463,463,459,458,457,455,453,462,460,460,456,453,455,452,454,455,450,451,450,448,447,444,446,445,445,450,477,493,510,521,530,540,546,548,555,558,560,560,560,564,563,566,567,563,564,567,568,568,566,568,568,568,567,568,569
10311,0.0068359375,-0.052490234375,1.0059814453125,2.13623046875,2.0751953125,2.74658203125,668,646,632,613,599,585,573,559,550,540,529,523,519,512,505,499,495,486,486,483,478,472,472,465,465,458,456,456,453,449,451,450,446,444,444,444,444,442,450,448,446,443,445,446,449,446,449,447,443,447,471,493,507,521,535,547,555,561,565,571,574,572,574,578,579,578,579,583,585,588,588,588,588,589,590,590,593,596,593,596
10320,0.0029296875,-0.044189453125,0.9813232421875,1.5869140625,1.77001953125,2.8076171875,668,651,633,616,603,590,578,568,556,549,541,531,525,528,517,510,508,502,495,491,494,490,482,480,476,475,471,470,468,467,463,463,462,460,459,455,454,453,452,459,456,457,454,451,450,452,452,449,448,448,461,483,503,516,534,536,541,551,557,563,568,569,570,573,574,578,577,576,577,575,576,576,575,575,576,577,575,575,577,577
10330,0.0076904296875,-0.052490234375,1.0006103515625,2.25830078125,1.953125,2.685546875,653,640,625,609,602,594,586,579,572,565,559,554,548,548,542,542,538,544,541,534,532,528,522,524,523,520,518,517,516,517,516,513,514,507,509,508,504,507,505,507,507,511,523,524,522,522,525,531,533,544,564,578,588,597,624,647,644,640,638,647,658,666,673,677,680,675,671,663,661,666,665,666,666,663,660,658,649,637,631,621
10340,0.0272216796875,-0.056640625,1.017822265625,2.685546875,2.3193359375,2.685546875,658,637,617,602,588,574,564,551,540,529,524,514,510,499,497,488,485,479,483,477,475,468,467,461,460,463,460,456,453,450,450,447,444,442,441,442,440,437,438,436,433,435,436,432,440,440,437,438,436,436,438,461,478,493,504,513,525,526,531,535,538,544,543,547,545,548,546,548,549,552,549,549,548,548,545,549,548,547,549,557
10350,0.0008544921875,-0.019775390625,0.96142578125,1.40380859375,2.25830078125,2.685546875,665,650,633,617,606,589,578,568,555,546,538,530,523,518,511,504,502,495,492,488,490,488,481,480,474,473,476,470,471,470,466,464,463,460,455,457,458,454,451,451,451,446,447,446,446,442,451,452,451,451,450,463,481,499,517,525,536,549,554,562,564,569,578,579,587,599,595,597,596,596,593,594,593,596,594,592,589,588,586,582
10360,0.0096435546875,-0.0662841796875,0.982177734375,2.99072265625,2.13623046875,2.8076171875,683,664,647,632,616,602,592,582,568,559,550,542,535,529,519,513,511,506,500,495,492,488,483,481,478,483,477,476,475,473,471,467,466,467,466,463,462,460,457,455,454,454,452,452,448,447,448,449,447,447,465,485,507,513,524,531,538,549,555,557,566,558,554,552,548,544,548,549,550,546,544,546,541,540,543,541,543,547,547,552
10370,0.0029296875,-0.0179443359375,0.9774169921875,0.6103515625,1.708984375,2.8076171875,682,661,644,629,614,604,589,580,570,561,549,544,534,528,523,517,511,508,502,499,495,488,486,483,489,487,485,480,478,476,473,475,475,472,470,469,468,463,466,464,462,463,462,458,459,459,456,458,457,455,464,466,483,507,523,536,541,551,559,567,567,572,573,575,575,578,579,584,586,590,589,588,588,589,588,585,583,577,580,577
10380,0.0006103515625,-0.0638427734375,1.0341796875,2.685546875,1.5869140625,2.9296875,646,625,611,600,585,572,559,547,538,530,526,518,509,501,497,491,486,477,474,471,467,461,460,459,453,451,453,451,451,460,457,452,454,453,450,451,449,453,451,448,448,449,446,445,445,443,444,443,440,440,441,468,487,505,523,534,547,561,570,580,581,580,580,581,583,584,582,584,585,586,593,612,626,633,637,635,640,636,637,635
10390,0.0037841796875,-0.0286865234375,1.0001220703125,1.5869140625,2.5634765625,2.74658203125,666,652,642,630,618,613,607,610,598,586,574,564,556,551,542,538,537,536,530,525,519,519,516,515,516,525,534,540,544,545,543,539,533,530,521,517,510,505,501,504,502,496,492,488,485,480,476,474,472,471,467,489,507,519,530,540,550,559,569,575,583,584,585,589,592,598,602,606,607,609,608,606,608,607,608,609,607,607,606,611
10399,0.0069580078125,-0.0521240234375,0.982421875,1.5869140625,2.13623046875,2.74658203125,686,666,649,634,616,604,591,577,568,555,545,536,531,526,518,512,508,499,499,495,489,486,484,479,475,472,470,467,465,462,460,459,456,453,453,452,451,455,455,451,454,450,448,449,451,453,450,449,448,446,463,488,504,520,530,538,545,549,557,560,558,563,564,565,567,565,567,570,572,573,570,574,571,574,572,572,572,569,572,571
10409,0.0018310546875,-0.0535888671875,0.9874267578125,2.62451171875,1.46484375,2.62451171875,650,635,617,603,587,574,563,549,540,530,520,513,507,498,496,491,485,482,476,469,466,464,460,460,456,449,450,449,446,444,442,439,440,438,435,432,434,434,431,428,438,438,436,435,431,433,431,432,433,431,444,466,484,498,513,520,529,537,540,546,547,551,557,556,559,561,560,563,563,564,566,564,565,566,565,564,564,566,567,564
10419,0.0062255859375,-0.046875,0.9996337890625,1.953125,1.8310546875,2.5634765625,650,631,614,597,584,573,560,547,537,530,522,511,507,500,495,495,488,483,480,476,472,467,471,464,461,459,456,455,455,448,448,445,445,444,443,444,442,441,441,440,439,447,445,445,442,439,440,441,442,443,444,461,482,500,516,529,535,543,552,557,562,565,564,572,571,572,573,574,575,573,574,574,575,575,578,576,578,578,576,577
10429,0.0013427734375,-0.042236328125,0.9981689453125,1.52587890625,2.13623046875,2.74658203125,676,657,641,624,609,597,582,573,561,553,541,536,525,519,513,507,501,498,494,488,485,487,485,482,479,476,473,468,470,468,468,465,463,462,458,460,457,454,454,451,447,452,450,449,448,448,447,453,450,456,477,500,511,525,536,545,550,558,561,565,571,569,575,574,573,574,577,575,577,575,577,577,582,579,582,580,585,583,581,582
10439,0.0064697265625,-0.0430908203125,0.9881591796875,1.953125,2.38037109375,2.8076171875,662,645,629,611,600,585,572,561,550,542,529,525,515,507,502,497,490,486,478,475,471,468,464,471,465,463,458,458,455,452,458,454,452,451,448,448,449,447,447,446,447,447,445,448,447,443,448,446,447,455,468,495,511,523,536,544,551,557,560,564,565,569,569,569,566,570,569,570,570,572,568,571,573,571,573,570,573,572,571,574
10449,0.005859375,-0.042236328125,0.9913330078125,1.8310546875,2.38037109375,2.8076171875,661,640,623,608,594,580,571,557,548,538,528,524,515,508,498,495,489,484,477,474,473,468,463,461,460,455,458,458,453,452,449,451,454,454,447,449,448,445,443,441,442,441,439,437,438,437,436,437,438,437,448,474,492,509,520,533,540,544,557,557,559,564,567,570,572,575,576,573,575,576,577,577,579,577,579,578,578,579,581,579
10459,0.0042724609375,-0.041259765625,0.9971923828125,1.8310546875,1.89208984375,2.685546875,666,645,632,616,607,591,580,570,559,552,550,540,533,527,523,520,513,511,506,501,500,491,491,490,488,485,482,483,483,479,486,483,481,477,478,475,478,475,474,473,471,471,469,471,466,466,466,469,468,467,488,514,525,537,549,561,570,573,579,583,578,581,580,580,584,584,581,579,581,580,582,581,582,581,582,582,581,582,582,582
10469,0.00341796875,-0.0433349609375,0.9964599609375,1.89208984375,2.0751953125,2.685546875,668,647,632,617,602,587,573,566,558,545,538,532,523,517,513,507,502,495,488,485,482,478,473,472,469,467,464,463,460,458,457,453,459,459,458,455,456,452,449,453,451,452,449,445,446,446,445,444,444,439,462,485,506,517,532,538,543,550,554,560,568,566,569,573,574,575,574,573,578,579,578,579,578,580,581,580,584,582,582,583
10479,0.0045166015625,-0.0390625,0.969482421875,1.953125,2.3193359375,2.74658203125,663,645,633,619,609,600,602,598,596,593,584,576,568,559,549,541,537,540,532,527,521,515,511,504,499,493,489,481,478,476,473,469,473,472,470,466,463,463,459,458,458,456,452,453,448,450,448,447,445,444,445,457,478,502,511,527,534,539,547,555,558,562,561,566,565,565,566,565,567,568,568,571,570,570,573,571,570,578,576,577
10488,0.0067138671875,-0.047119140625,0.970947265625,2.0751953125,1.953125,2.74658203125,661,648,638,630,621,617,610,605,603,602,598,606,604,601,599,594,593,595,600,596,593,591,590,590,590,588,588,587,586,586,586,586,585,585,587,583,584,596,594,591,590,589,588,587,587,587,589,587,584,586,591,613,618,620,617,611,608,595,595,594,590,587,583,583,584,581,578,581,578,575,580,574,579,573,576,574,573,575,578,575
10498,0.00341796875,-0.0416259765625,0.99853515625,1.52587890625,1.708984375,2.8076171875,663,646,631,615,600,588,575,560,553,542,535,529,522,512,510,509,505,497,494,491,488,490,486,484,482,478,473,473,471,473,467,468,467,464,462,461,462,460,459,459,469,468,467,463,465,464,465,468,469,465,470,495,516,529,541,553,560,568,577,579,585,588,590,590,591,592,594,595,596,596,594,598,592,596,592,594,594,593,595,592
10508,0.002197265625,-0.0400390625,1.032958984375,1.64794921875,1.89208984375,2.62451171875,657,638,623,605,592,577,567,557,550,537,531,521,513,511,505,499,492,496,493,485,480,480,476,473,476,471,469,467,465,464,462,469,469,469,475,479,482,488,491,500,510,518,528,556,562,570,572,575,578,579,598,622,635,644,648,651,651,654,653,652,652,655,654,654,654,654,654,654,653,655,656,654,656,655,657,651,655,653,653,646
10518,0.00390625,-0.0440673828125,1.0125732421875,1.953125,2.44140625,2.8076171875,653,639,623,618,611,603,601,598,592,594,588,588,586,583,584,581,582,581,582,581,581,589,587,580,579,576,575,575,579,578,575,573,573,571,574,570,569,573,571,572,571,572,571,571,570,572,572,583,579,578,592,616,622,626,631,632,631,632,632,633,630,634,634,633,634,635,633,634,630,633,632,633,632,630,632,633,632,631,633,633
10528,0.0084228515625,-0.03955078125,0.9801025390625,1.89208984375,1.77001953125,2.8076171875,647,628,611,596,583,568,556,545,535,526,517,507,502,493,489,481,478,471,468,466,462,459,464,460,454,454,450,445,445,445,444,443,441,441,439,433,435,435,435,433,431,432,431,429,429,429,429,429,433,434,434,451,470,489,500,513,524,527,534,541,545,548,551,553,555,554,555,555,556,555,557,559,558,559,562,562,566,564,565,564
10538,0.0009765625,-0.0430908203125,0.984619140625,2.50244140625,1.5869140625,2.685546875,643,624,607,594,579,564,557,545,536,526,518,511,501,497,491,486,479,475,469,468,462,461,455,455,450,459,456,454,449,449,447,445,447,446,443,443,443,441,440,439,438,437,435,433,434,435,431,433,431,429,431,454,476,489,504,511,520,527,534,539,540,543,547,547,550,554,555,552,557,557,559,559,558,559,565,563,563,564,562,566
10548,0.0008544921875,-0.0443115234375,0.9984130859375,2.13623046875,1.64794921875,2.74658203125,643,626,611,591,583,569,556,546,534,525,517,511,505,499,491,483,483,473,471,467,465,459,457,456,450,451,448,445,445,442,447,447,443,445,442,440,438,443,442,438,439,437,434,436,433,432,434,431,433,432,449,470,487,499,510,523,529,533,542,541,548,550,554,556,555,558,557,559,558,559,562,563,565,565,565,566,565,563,569,566
10558,0.00439453125,-0.0477294921875,1.0006103515625,2.3193359375,2.25830078125,2.8076171875,641,625,609,592,581,568,556,550,537,527,518,511,504,499,496,487,484,479,475,471,466,464,460,457,453,454,450,449,445,446,442,441,439,445,442,442,440,439,439,443,440,438,439,439,436,434,435,434,435,430,439,461,489,497,509,519,529,537,538,545,548,549,552,553,556,556,558,557,557,561,558,559,561,561,560,561,558,562,565,566
10567,0.0076904296875,-0.0430908203125,0.9833984375,1.89208984375,2.685546875,2.74658203125,644,625,608,591,578,565,556,546,533,528,517,508,511,506,497,493,486,483,483,479,475,471,468,466,462,458,457,455,456,452,448,449,448,449,448,444,446,453,447,452,449,444,447,444,450,448,447,446,446,444,465,485,502,516,524,532,539,544,548,550,554,556,560,563,565,568,570,572,574,574,573,575,575,572,575,574,574,573,574,575
10577,0.008544921875,-0.04541015625,0.978759765625,2.197265625,2.38037109375,2.74658203125,652,635,616,599,585,574,562,550,542,531,521,516,509,511,504,496,492,485,481,474,478,476,470,464,464,463,458,455,453,450,450,446,446,446,444,443,443,442,438,448,446,443,443,442,439,441,446,444,441,441,452,474,490,507,517,527,532,542,544,550,551,553,556,557,558,559,560,559,559,560,562,563,562,562,564,564,563,563,562,565
10587,0.0067138671875,-0.0423583984375,0.98486328125,1.89208984375,1.52587890625,2.8076171875,643,627,611,597,578,569,555,545,536,524,519,511,506,498,490,485,485,480,477,470,469,465,467,462,459,457,453,452,450,448,446,443,442,444,441,439,438,439,437,437,436,437,443,441,440,439,439,438,440,441,440,468,486,499,513,528,530,537,544,543,548,554,557,558,560,561,561,562,563,563,563,563,564,565,567,565,565,565,563,567
10597,0.005859375,-0.040771484375,0.9918212890625,1.52587890625,2.0751953125,2.74658203125,646,627,609,595,582,566,558,546,535,526,518,511,504,498,492,489,481,478,481,474,471,469,465,462,459,461,461,459,455,451,451,449,447,445,443,444,442,441,438,441,439,439,437,436,441,439,441,441,439,437,436,459,481,497,511,521,533,535,541,548,549,549,553,555,557,560,561,563,563,564,565,566,565,563,565,565,566,567,566,566
10607,0.006103515625,-0.0435791015625,0.9901123046875,1.89208984375,2.38037109375,2.685546875,639,620,602,588,573,561,553,540,529,522,514,505,499,493,488,483,475,474,469,466,461,459,456,460,456,454,454,452,448,447,449,449,447,444,441,443,440,439,439,440,438,435,436,434,437,434,434,434,433,440,456,478,495,507,520,527,532,543,542,548,550,556,555,557,557,559,561,561,561,564,565,564,563,564,565,564,567,566,565,565
10617,0.0079345703125,-0.0400390625,0.99560546875,1.52587890625,2.13623046875,2.685546875,647,630,613,597,583,572,559,551,539,529,520,515,505,499,495,489,484,479,473,470,463,464,459,458,455,459,459,455,455,453,448,450,449,452,447,447,445,444,444,442,440,442,439,440,439,436,435,436,437,435,453,471,490,501,515,524,531,540,545,548,553,555,558,558,560,562,566,566,563,567,565,564,564,565,563,566,569,567,568,563
10627,0.005126953125,-0.0411376953125,1.00244140625,1.64794921875,1.77001953125,2.74658203125,655,634,624,609,594,586,575,566,559,555,550,547,544,543,544,545,546,548,549,550,552,550,550,549,551,549,554,555,567,565,568,566,566,566,568,571,571,572,571,574,572,573,573,571,573,574,572,572,572,575,586,610,623,630,636,635,638,641,639,647,643,644,642,644,646,645,648,649,645,648,647,651,650,650,653,652,651,650,649,648
10637,0.0042724609375,-0.0391845703125,1.007568359375,1.64794921875,1.77001953125,2.8076171875,665,651,634,626,618,609,607,611,604,603,598,597,594,597,597,595,593,590,592,590,590,587,587,588,589,588,585,586,588,588,588,584,596,598,594,591,591,590,589,593,591,591,590,587,586,588,586,583,583,585,607,622,633,635,642,640,641,643,643,642,644,643,642,640,640,644,642,642,640,640,639,642,638,640,640,643,645,642,641,642
10647,0.00341796875,-0.042724609375,1.0030517578125,2.0751953125,2.0751953125,2.685546875,655,643,630,620,611,614,606,600,598,592,592,591,594,590,588,585,584,585,585,583,579,582,582,582,580,580,583,581,581,581,582,592,588,586,588,588,586,585,593,590,589,588,586,587,584,584,585,585,583,579,584,583,609,627,633,639,640,641,644,645,645,645,645,639,646,644,643,646,647,647,644,646,645,646,646,643,645,645,644,646
10656,0.0025634765625,-0.0428466796875,0.990966796875,2.3193359375,2.13623046875,2.74658203125,660,647,634,625,615,605,603,600,596,594,593,589,590,598,595,592,591,588,587,586,594,589,589,590,588,587,587,586,583,582,584,582,580,580,581,579,580,575,573,583,581,575,566,560,555,549,543,540,535,527,539,549,559,560,564,566,572,566,571,569,571,569,572,569,570,571,571,568,571,571,572,569,569,567,569,567,567,567,568,568
10666,0.00244140625,-0.04345703125,0.9832763671875,2.3193359375,1.953125,2.62451171875,651,635,615,601,588,573,563,551,541,533,522,516,511,503,498,498,494,488,482,481,473,471,470,466,465,463,458,458,455,453,452,450,448,447,447,445,446,446,444,443,443,448,448,445,444,444,443,443,446,445,456,477,493,510,521,531,537,546,549,551,555,560,561,565,561,564,566,565,570,571,570,576,568,570,571,569,571,573,572,577
10676,0.00244140625,-0.0452880859375,0.985595703125,2.01416015625,1.953125,2.74658203125,660,642,621,609,593,578,569,554,548,539,530,521,514,507,499,496,487,486,479,479,479,475,473,467,465,461,464,463,458,459,457,453,454,453,450,450,449,447,447,443,447,445,444,441,445,452,452,448,447,447,471,489,504,516,525,535,546,546,556,557,561,565,564,567,569,565,572,567,569,570,569,570,574,573,573,573,569,573,570,571
10686,0.0018310546875,-0.0433349609375,0.988525390625,1.953125,2.01416015625,2.74658203125,651,635,618,601,588,575,560,551,539,532,523,512,507,499,495,490,485,480,476,472,473,471,468,467,462,459,456,461,457,455,452,452,448,448,447,446,443,442,443,442,437,441,439,438,440,436,448,443,444,444,441,468,481,501,511,525,533,542,544,551,555,557,558,562,559,565,564,568,568,568,567,567,565,572,568,567,569,570,571,572
10696,0.0050048828125,-0.04736328125,0.992431640625,1.953125,2.0751953125,2.685546875,656,639,619,607,591,576,567,555,548,537,526,520,511,506,499,494,487,485,477,478,473,470,466,461,462,466,463,461,459,458,456,452,453,452,451,450,449,449,443,445,443,445,443,441,441,443,439,441,440,439,461,484,502,516,524,533,540,545,552,556,560,559,561,566,564,565,568,568,570,570,571,570,571,570,573,570,571,570,571,572
10706,0.004638671875,-0.0443115234375,0.9925537109375,1.708984375,2.01416015625,2.9296875,649,629,615,597,585,574,562,551,540,532,524,515,506,500,492,488,485,478,475,471,467,462,461,456,464,459,458,455,453,449,448,451,450,449,446,444,444,442,441,437,437,439,437,438,435,433,436,431,435,434,442,441,460,481,495,507,519,528,536,541,545,551,551,555,555,557,559,562,563,562,564,563,563,566,563,567,566,563,565,565
10716,0.0032958984375,-0.04248046875,1.024169921875,1.5869140625,1.953125,2.8076171875,648,630,614,599,585,570,564,550,543,534,522,514,509,503,500,493,485,483,480,473,469,463,464,460,455,453,453,452,447,449,446,442,451,449,445,445,443,442,442,439,442,440,436,438,437,433,436,436,434,431,455,476,493,508,518,526,531,539,543,546,551,552,556,554,556,555,558,558,561,559,561,561,561,562,561,563,563,561,565,564
10726,0.0030517578125,-0.041259765625,1.0025634765625,1.77001953125,1.89208984375,2.8076171875,645,629,612,595,582,570,561,549,540,530,521,512,505,499,495,488,483,477,474,472,464,463,460,457,453,452,451,449,446,446,444,441,449,446,444,444,442,442,439,445,441,443,440,439,439,436,439,437,437,435,434,451,473,495,510,521,531,538,546,549,552,558,560,565,564,568,566,568,568,569,572,573,571,574,575,574,574,579,577,577
10735,0.0047607421875,-0.03955078125,1.0003662109375,1.8310546875,2.197265625,2.86865234375,652,635,621,604,594,581,569,564,556,554,550,549,547,542,536,533,530,528,532,531,527,526,528,529,521,518,513,508,507,505,503,500,502,502,504,510,514,526,532,533,535,535,529,525,524,520,518,515,513,510,517,536,553,566,588,597,607,616,615,624,623,628,626,626,631,626,633,633,634,631,632,628,631,630,628,627,630,632,631,632
10745,0.0052490234375,-0.04052734375,0.9927978515625,1.953125,2.3193359375,2.86865234375,656,642,628,617,609,600,596,589,584,583,578,577,576,571,579,576,575,574,572,569,571,575,574,575,568,570,569,565,568,568,564,566,568,567,565,566,567,566,563,566,575,575,573,569,568,569,569,573,573,570,571,597,611,622,625,628,628,631,630,629,630,632,631,633,631,634,631,632,634,633,632,634,633,634,633,633,634,633,633,637
10755,0.0059814453125,-0.0411376953125,0.9912109375,2.01416015625,2.01416015625,2.86865234375,661,642,629,615,601,592,584,570,570,559,556,547,544,538,535,531,526,526,529,527,521,516,514,514,511,515,513,511,509,505,506,507,503,502,502,502,499,500,498,495,492,493,490,488,495,494,489,491,487,486,508,525,540,551,560,567,572,571,574,577,578,575,575,571,572,573,574,567,569,565,566,566,566,565,569,562,562,562,563,560
10765,0.0062255859375,-0.0438232421875,0.9906005859375,2.0751953125,2.01416015625,2.86865234375,651,630,615,599,586,572,559,546,538,527,518,510,504,497,491,486,476,474,470,465,461,466,460,458,455,451,451,447,450,446,446,442,438,440,436,436,433,434,432,432,430,428,429,426,428,427,428,431,430,430,442,465,483,493,506,513,521,531,531,538,542,545,546,549,551,550,551,555,556,557,559,557,558,561,562,563,559,561,560,563
10775,0.005859375,-0.043212890625,0.9921875,2.0751953125,2.197265625,2.74658203125,647,627,614,595,582,568,558,547,535,527,516,511,501,494,486,483,476,472,467,460,459,453,453,447,447,451,446,444,444,440,439,439,440,439,435,436,435,436,434,431,432,432,430,428,428,429,428,425,426,425,452,469,483,501,509,516,524,532,535,541,541,547,550,551,552,552,557,552,558,556,557,558,556,557,555,553,557,556,555,555
10785,0.0067138671875,-0.0423583984375,0.9951171875,1.89208984375,2.25830078125,2.685546875,642,625,607,590,577,566,554,541,532,521,515,506,496,490,482,477,471,467,463,458,455,452,447,443,451,445,443,442,439,435,435,437,436,432,430,432,428,429,425,425,424,419,422,422,421,421,418,420,417,420,425,425,447,466,481,494,503,509,517,525,529,535,535,540,542,544,542,547,548,550,548,548,552,550,551,551,553,552,549,551
10795,0.0062255859375,-0.0421142578125,0.99365234375,1.89208984375,2.0751953125,2.86865234375,641,625,609,595,579,568,556,542,534,526,518,509,502,493,489,482,475,473,468,463,460,454,454,450,447,443,443,438,437,444,439,438,437,434,433,430,431,430,430,429,429,429,425,426,423,424,423,423,422,422,420,440,464,477,493,502,511,517,524,532,534,538,541,541,544,544,545,548,550,553,554,552,552,550,553,553,555,554,554,555
10805,0.005126953125,-0.0419921875,0.99658203125,1.89208984375,2.01416015625,2.74658203125,645,623,608,591,575,565,551,544,534,524,514,505,497,494,486,481,477,471,465,462,458,453,450,448,444,442,438,438,437,431,433,431,437,432,434,432,430,428,426,430,428,427,425,424,423,422,418,422,420,420,417,438,459,472,486,502,507,518,523,527,531,533,540,539,546,545,546,545,546,548,548,550,548,550,551,551,549,551,552,552
10814,0.0047607421875,-0.042724609375,0.996337890625,1.708984375,2.01416015625,2.685546875,642,627,608,594,579,564,552,542,531,522,514,508,503,492,489,482,475,469,469,467,460,458,451,448,447,445,440,438,438,437,431,432,430,430,429,425,427,434,430,429,425,424,425,423,428,425,426,425,423,424,437,456,473,490,500,508,517,524,529,536,534,539,537,544,547,547,551,549,548,549,550,552,553,551,552,555,553,552,550,553
10824,0.0042724609375,-0.04248046875,0.995361328125,1.77001953125,2.0751953125,2.74658203125,641,626,604,591,577,564,552,541,530,519,513,503,495,490,489,481,478,469,468,462,457,457,453,450,446,447,441,438,437,436,432,428,429,427,427,424,424,423,422,421,428,427,427,424,425,420,422,426,421,423,433,455,471,484,493,505,512,519,525,528,533,536,540,543,545,545,548,548,545,549,549,549,551,550,550,551,553,549,554,554
10834,0.00341796875,-0.0418701171875,0.9967041015625,1.8310546875,2.13623046875,2.8076171875,645,630,613,594,583,569,554,545,532,525,516,507,502,494,487,482,475,470,471,468,461,460,455,455,451,448,448,444,440,440,440,434,436,433,431,431,430,429,429,427,426,427,424,430,432,429,428,429,427,427,447,467,482,496,504,513,521,526,532,535,540,542,544,547,548,546,548,551,552,552,553,554,551,554,552,554,553,555,556,555
10844,0.0032958984375,-0.0423583984375,0.9949951171875,1.953125,2.0751953125,2.8076171875,646,628,609,595,578,568,556,542,535,524,513,507,496,492,486,479,474,475,471,465,462,458,454,453,454,451,449,446,444,441,440,439,438,438,432,433,432,430,428,430,429,429,429,435,433,432,431,430,430,428,431,431,453,468,484,495,505,511,520,523,529,534,536,538,539,542,541,543,546,548,547,547,548,549,551,551,549,550,551,553
10854,0.0037841796875,-0.0419921875,0.994384765625,2.01416015625,2.01416015625,2.74658203125,646,630,611,594,583,569,557,545,534,522,517,505,499,490,483,477,473,469,464,462,456,453,449,452,447,446,444,441,438,437,433,438,436,431,428,431,429,425,427,425,423,420,422,420,420,417,420,420,418,424,430,451,471,484,497,506,513,519,525,529,531,533,537,537,543,542,543,545,542,545,545,548,548,546,549,548,550,548,547,548
10864,0.0048828125,-0.0439453125,0.994140625,1.953125,2.0751953125,2.74658203125,641,622,607,591,576,561,550,539,529,520,511,503,495,488,483,473,472,463,462,456,452,450,446,444,439,435,444,439,435,434,433,428,426,427,429,428,422,421,423,421,418,419,420,417,415,414,416,415,412,413,431,443,462,477,487,497,510,514,519,527,527,533,534,539,540,541,541,545,546,548,546,546,545,546,551,550,549,551,548,550
10874,0.0040283203125,-0.0438232421875,0.9937744140625,2.01416015625,2.25830078125,2.86865234375,644,625,607,590,578,567,552,543,531,522,514,508,499,491,485,478,472,467,461,457,456,451,447,444,443,440,435,436,431,436,436,434,429,430,427,425,426,426,427,425,422,420,421,420,419,419,417,414,414,415,433,459,468,480,495,500,511,518,522,527,532,535,537,539,542,541,544,542,546,546,547,547,546,549,549,547,548,548,547,548
10884,0.004150390625,-0.04443359375,0.992431640625,2.0751953125,2.197265625,2.8076171875,643,626,606,591,577,564,557,545,532,523,513,506,496,492,486,478,472,470,462,460,455,450,445,444,438,435,436,433,431,430,429,425,433,431,426,426,429,424,422,428,425,423,421,422,419,418,420,418,416,418,424,447,462,479,492,500,509,515,522,526,529,534,535,539,541,542,547,545,547,548,547,549,548,549,548,551,550,549,547,553
10894,0.0040283203125,-0.043212890625,0.992431640625,1.953125,2.197265625,2.74658203125,647,630,612,591,581,569,553,544,532,519,514,511,502,493,490,483,475,472,469,467,461,456,455,451,448,445,441,440,437,435,435,434,428,429,427,426,428,432,432,428,430,429,426,423,426,429,426,423,423,426,450,467,480,502,505,514,522,526,530,535,540,541,544,542,545,547,550,549,547,551,549,551,548,553,550,552,550,550,554,551
10903,0.0028076171875,-0.0428466796875,0.9945068359375,1.89208984375,2.01416015625,2.74658203125,646,626,607,594,577,564,554,542,529,520,512,503,496,492,488,479,473,469,463,459,453,454,451,444,442,440,436,436,431,432,430,427,425,423,424,421,420,420,426,426,423,419,421,419,418,416,421,419,420,417,429,453,468,479,499,500,510,517,521,527,530,535,540,537,538,541,543,543,546,546,549,550,550,550,549,551,553,550,551,552
10913,0.002685546875,-0.04150390625,0.9971923828125,2.01416015625,2.01416015625,2.685546875,648,627,613,598,582,570,555,546,534,522,516,506,499,492,487,479,480,477,469,463,461,455,453,452,450,446,444,440,437,437,432,434,431,427,428,426,425,423,423,421,419,419,428,425,425,424,423,421,419,425,437,459,474,489,498,511,515,520,527,532,533,536,537,540,541,543,545,546,545,547,549,552,548,548,550,549,547,548,548,546
10923,0.003662109375,-0.041748046875,0.99462890625,1.953125,2.01416015625,2.86865234375,641,625,607,592,578,563,552,542,528,522,511,503,496,488,483,477,469,466,460,457,451,454,451,450,445,441,438,438,436,439,438,435,430,432,429,430,424,426,425,425,421,420,424,422,421,420,420,426,425,431,455,475,488,498,506,515,528,527,530,534,536,540,536,542,546,543,545,546,547,548,548,549,545,550,547,549,550,547,551,548
10933,0.00439453125,-0.0430908203125,0.996337890625,2.0751953125,2.0751953125,2.8076171875,646,630,613,596,581,570,555,543,534,524,512,507,499,489,485,479,474,466,464,459,455,460,456,452,450,445,442,440,438,440,435,433,433,432,430,429,425,425,426,426,423,422,421,420,423,421,425,427,425,423,425,451,464,481,490,502,509,523,524,529,536,538,541,542,542,550,546,546,548,549,550,549,550,553,551,549,552,552,553,554
10943,0.004150390625,-0.0428466796875,0.994873046875,2.13623046875,2.0751953125,2.8076171875,647,626,610,593,577,567,557,544,536,523,515,508,498,494,485,482,474,472,464,464,457,455,449,448,453,450,447,444,439,438,439,435,433,436,434,431,428,429,428,426,424,426,424,423,423,421,423,420,423,420,435,456,477,485,499,507,515,521,530,530,537,538,540,542,546,542,551,547,547,552,549,551,551,551,555,548,554,550,552,552
10953,0.005126953125,-0.0443115234375,0.994140625,2.197265625,2.0751953125,2.8076171875,647,628,615,597,583,570,557,548,539,528,519,509,501,496,489,484,476,473,466,464,458,455,451,449,443,444,440,444,441,438,438,436,431,432,435,431,430,430,428,427,423,425,424,422,422,424,422,419,421,419,422,448,465,485,491,500,511,517,526,533,535,539,539,542,543,545,548,548,546,548,547,549,551,549,551,554,550,548,549,552
10963,0.005859375,-0.0440673828125,0.9942626953125,2.0751953125,2.13623046875,2.74658203125,641,622,609,592,576,566,557,543,537,525,516,505,498,494,489,483,478,472,466,462,459,453,448,447,444,442,439,437,434,432,430,429,435,434,431,430,427,426,427,427,425,424,420,422,420,417,421,419,418,415,435,454,470,484,500,501,511,517,524,525,528,533,537,537,538,541,540,541,547,545,545,546,545,544,546,545,549,547,547,548
10973,0.005615234375,-0.0426025390625,0.9935302734375,2.01416015625,2.25830078125,2.685546875,642,625,608,593,578,565,556,542,531,523,514,507,503,494,487,481,477,469,465,461,455,453,449,446,442,440,435,435,431,427,428,435,433,431,427,426,426,425,427,425,424,422,424,421,420,418,417,417,415,413,415,419,441,459,474,490,499,507,515,516,523,526,532,538,533,538,539,542,543,548,543,546,548,548,549,547,550,551,548,547
10982,0.0048828125,-0.041748046875,0.99658203125,1.953125,1.8310546875,2.74658203125,641,625,606,594,575,564,552,540,530,520,513,507,499,493,485,479,471,468,467,461,457,452,450,448,443,439,437,436,435,429,431,428,425,427,425,424,420,427,427,425,424,425,423,419,423,425,423,421,421,420,426,447,463,478,492,502,512,516,520,525,528,532,534,536,538,540,539,542,542,543,543,543,544,545,546,544,543,543,552,546
10992,0.00390625,-0.040283203125,0.998779296875,1.77001953125,2.01416015625,2.74658203125,643,622,608,593,576,566,553,542,532,519,512,503,495,491,489,482,476,469,465,459,458,458,455,451,445,442,442,438,437,435,434,431,430,428,427,426,424,422,423,421,428,429,426,427,423,424,423,427,426,425,423,446,470,481,496,504,510,521,523,525,529,533,536,537,541,543,543,543,542,545,549,548,549,545,549,547,548,549,549,554
11002,0.00390625,-0.041748046875,0.997802734375,1.953125,2.13623046875,2.8076171875,644,624,607,593,578,566,553,540,531,520,507,505,495,491,481,478,468,467,467,464,460,458,451,449,446,449,447,442,441,438,438,435,433,429,431,431,429,429,427,426,425,425,425,425,428,428,428,429,425,424,442,462,478,490,501,509,515,521,525,529,532,535,539,541,539,545,546,543,545,546,545,547,553,552,552,553,554,553,555,556
11012,0.0050048828125,-0.041748046875,0.9957275390625,2.01416015625,2.13623046875,2.74658203125,644,623,610,594,577,566,553,542,532,523,511,507,498,492,484,481,477,469,467,462,466,461,459,454,452,447,446,444,446,443,439,437,436,436,435,431,433,431,432,429,429,426,427,427,427,428,426,432,432,430,443,462,482,495,502,514,524,526,535,537,541,546,545,547,548,549,553,550,552,552,552,553,554,553,552,555,554,552,550,555
11022,0.0042724609375,-0.0426025390625,0.9937744140625,1.953125,2.0751953125,2.62451171875,643,624,609,595,578,567,553,543,532,521,513,505,498,492,483,478,476,468,461,460,455,453,458,455,452,445,446,441,439,442,439,439,436,435,433,431,429,429,428,425,426,424,425,424,421,422,422,420,427,428,424,443,463,478,492,499,509,517,525,528,533,535,537,536,539,541,542,546,547,549,547,549,549,550,549,548,552,550,552,550
11032,0.00537109375,-0.0438232421875,0.9954833984375,2.01416015625,2.13623046875,2.62451171875,644,624,607,594,579,566,554,543,533,522,514,506,500,491,486,479,474,467,466,460,458,454,450,446,451,451,446,445,442,441,437,444,443,438,438,434,435,436,433,429,433,430,426,428,428,428,426,425,424,423,430,433,456,472,488,498,507,516,524,530,531,540,540,543,544,545,547,549,550,553,550,550,550,550,553,554,551,556,553,556
11042,0.005126953125,-0.04443359375,0.9945068359375,1.89208984375,2.13623046875,2.74658203125,643,622,607,594,578,565,554,540,531,521,513,507,500,490,486,479,474,469,461,461,456,452,450,446,444,441,438,436,441,440,438,436,431,431,431,428,430,430,426,428,426,426,422,425,422,423,420,422,420,419,424,444,463,477,493,499,508,514,522,526,531,533,536,540,541,542,544,545,544,545,548,546,547,550,551,553,551,546,551,551
11052,0.0050048828125,-0.042236328125,0.9940185546875,1.77001953125,2.13623046875,2.74658203125,643,626,609,595,577,570,558,545,534,527,517,509,504,497,492,485,481,473,470,466,459,459,455,453,449,445,443,442,440,437,435,442,438,436,434,434,433,431,432,436,435,431,428,429,428,425,426,426,425,424,424,437,463,474,490,500,510,518,523,529,534,538,542,540,547,546,545,550,549,553,554,553,553,552,556,555,552,556,555,558
11061,0.003662109375,-0.042724609375,0.9949951171875,1.8310546875,2.13623046875,2.685546875,644,627,609,593,579,563,554,542,532,519,514,510,502,494,488,480,473,470,470,465,461,456,455,449,448,445,441,441,439,435,433,431,432,430,427,429,425,432,430,431,428,428,427,424,429,427,428,427,426,425,443,460,477,491,502,510,518,522,529,533,535,542,541,541,544,546,546,545,546,547,549,547,551,549,549,553,551,544,551,550
11071,0.0032958984375,-0.0426025390625,0.994384765625,1.89208984375,2.01416015625,2.74658203125,642,627,609,596,578,567,551,540,531,520,511,505,496,491,487,483,475,471,466,462,459,457,454,452,448,443,445,437,440,436,435,434,433,431,431,429,428,427,424,432,432,429,429,427,425,427,426,429,427,426,441,459,477,490,500,510,517,525,528,533,533,538,543,546,546,547,549,550,550,549,548,551,551,552,551,550,552,551,552,552
11081,0.0018310546875,-0.042724609375,0.99462890625,1.77001953125,2.01416015625,2.9296875,642,624,610,594,578,567,554,540,531,521,514,505,495,489,482,485,479,472,465,464,459,453,457,451,447,447,441,442,439,437,432,433,432,428,429,429,426,426,426,424,421,431,430,427,427,426,425,423,426,426,423,439,459,475,489,500,508,517,518,527,531,535,538,541,546,544,545,547,548,547,546,549,549,550,549,551,547,551,551,550
11091,0.0030517578125,-0.042724609375,0.9964599609375,1.89208984375,2.01416015625,2.74658203125,643,622,608,592,576,564,552,540,531,524,510,504,496,487,482,475,470,465,463,457,455,459,452,452,447,443,441,441,442,439,438,436,434,431,431,432,426,426,426,425,428,422,426,424,421,423,420,431,430,426,447,466,482,495,504,514,517,523,529,535,537,541,541,547,550,549,550,553,551,551,554,553,557,555,555,554,555,558,558,557
11101,0.0040283203125,-0.0426025390625,0.9989013671875,1.953125,2.197265625,2.74658203125,647,627,614,598,582,571,558,549,536,528,520,511,507,502,496,493,488,484,481,478,477,475,470,472,476,472,470,464,461,460,459,457,459,454,453,448,447,447,446,443,444,443,443,440,442,442,439,440,439,450,467,486,499,513,519,529,538,548,544,550,553,556,561,561,564,568,566,567,569,568,570,572,573,572,573,574,571,575,573,573
11111,0.0042724609375,-0.04150390625,0.9996337890625,2.01416015625,2.197265625,2.9296875,649,631,614,597,586,572,561,551,540,530,523,514,506,500,493,489,485,478,475,472,465,465,460,456,455,460,456,456,453,450,448,447,450,451,446,446,445,442,440,443,441,438,437,439,437,436,439,435,437,434,453,465,481,497,511,520,528,536,541,546,550,552,554,557,559,560,563,562,564,561,563,566,565,564,561,565,565,566,563,565
11121,0.0054931640625,-0.04150390625,0.99755859375,2.13623046875,2.197265625,2.9296875,650,631,616,603,587,573,561,552,540,530,525,517,511,502,497,490,485,479,475,472,468,463,461,457,454,455,449,449,446,450,451,446,445,441,443,441,445,442,443,441,436,438,437,437,437,434,438,435,431,435,450,475,489,500,510,520,526,533,537,542,543,544,548,550,552,554,554,556,554,554,559,559,558,559,559,561,561,559,558,559
11131,0.0062255859375,-0.042724609375,0.994140625,2.0751953125,2.3193359375,2.74658203125,647,632,617,599,583,572,560,550,538,527,521,513,505,494,493,489,486,478,472,471,466,462,457,457,453,451,447,446,444,441,441,441,439,445,441,440,441,437,436,436,436,433,437,433,431,433,432,429,428,432,449,469,483,502,510,522,524,532,538,539,550,547,549,552,549,555,557,554,559,557,558,557,560,557,561,562,563,561,562,561
11141,0.00537109375,-0.0419921875,0.99267578125,2.01416015625,2.13623046875,2.685546875,646,627,612,597,582,568,557,542,531,524,514,511,505,497,489,484,477,473,471,469,463,459,454,450,449,447,443,438,439,439,437,435,432,430,430,429,435,435,432,433,431,431,428,425,430,430,428,426,427,427,449,470,482,503,503,513,521,524,531,533,536,540,543,546,546,548,550,551,551,553,551,552,551,551,552,551,551,552,555,551
11150,0.00439453125,-0.042724609375,0.9932861328125,1.953125,2.0751953125,2.685546875,645,628,612,596,583,570,553,546,532,525,515,506,500,498,489,485,478,473,468,465,465,459,458,456,449,449,446,443,442,440,438,436,434,435,433,432,430,427,430,434,434,436,433,432,431,430,432,434,432,431,446,465,482,493,507,513,521,527,532,536,541,543,546,548,547,550,549,554,556,554,555,557,556,556,557,557,557,555,559,559
11160,0.0050048828125,-0.0430908203125,0.9942626953125,1.8310546875,2.25830078125,2.8076171875,644,629,611,593,582,568,556,544,534,523,514,508,499,494,484,486,480,475,470,466,461,455,457,455,451,448,447,445,443,442,437,437,435,430,432,432,432,428,429,427,426,431,431,430,427,429,428,427,427,430,429,451,468,482,495,506,515,522,528,530,538,539,541,547,546,548,549,553,552,554,556,557,555,555,558,557,558,556,558,558
11170,0.005126953125,-0.042724609375,0.99609375,1.708984375,2.197265625,2.685546875,645,625,613,596,583,567,557,544,534,526,515,510,502,496,488,482,478,473,471,467,462,464,462,460,457,452,451,450,449,449,447,443,442,441,440,440,438,438,434,435,434,431,433,432,429,430,436,440,435,442,462,481,495,508,518,526,536,537,541,546,549,553,553,555,559,558,559,561,561,560,560,562,562,563,562,561,562,562,563,562
11180,0.004150390625,-0.0428466796875,0.995849609375,1.64794921875,1.89208984375,2.685546875,648,629,611,597,582,570,559,546,538,526,516,510,502,497,488,485,478,475,467,468,464,459,464,461,458,451,453,449,446,451,447,447,446,442,440,440,439,437,435,436,435,433,433,433,433,431,433,430,438,437,448,467,488,500,507,517,524,539,538,541,545,545,548,552,553,555,555,558,558,558,555,557,560,562,560,558,562,560,562,564
11190,0.00390625,-0.0421142578125,0.9945068359375,1.8310546875,1.89208984375,2.74658203125,643,627,609,589,580,566,558,546,536,526,517,509,503,496,489,484,479,474,471,466,464,459,459,455,453,457,456,455,450,450,447,445,447,445,444,444,443,442,438,441,438,438,434,437,438,436,434,433,435,435,453,469,486,502,512,522,529,536,547,543,548,551,555,555,556,558,561,560,559,561,562,562,562,564,561,566,564,563,563,563
11200,0.004150390625,-0.0416259765625,0.991943359375,2.01416015625,2.01416015625,2.685546875,649,631,613,599,585,571,561,550,541,532,523,514,506,499,494,488,484,478,475,472,467,464,463,459,456,455,454,459,455,455,450,450,447,446,447,447,443,439,440,440,438,435,437,437,434,432,433,433,433,429,432,453,471,485,502,511,522,528,534,540,541,545,549,549,552,553,554,557,554,557,560,557,557,560,561,559,561,561,564,561
11210,0.00390625,-0.04345703125,0.9932861328125,2.01416015625,2.01416015625,2.74658203125,649,628,612,597,581,568,558,547,539,528,518,511,504,498,494,487,483,476,472,470,463,462,459,455,453,451,447,446,445,444,440,441,450,448,445,445,443,441,440,440,441,441,441,439,438,438,438,438,436,439,460,481,499,506,518,527,532,536,540,543,552,551,550,556,554,559,559,558,562,563,563,564,562,562,562,565,567,565,566,566
11220,0.0032958984375,-0.041748046875,0.9986572265625,2.01416015625,2.01416015625,2.74658203125,648,631,613,598,584,570,560,551,541,532,523,513,505,501,499,493,487,481,477,472,467,466,460,461,456,455,452,449,447,444,442,444,441,448,446,445,446,447,441,444,446,447,444,446,447,442,446,444,453,461,466,504,535,555,563,575,582,589,592,597,598,606,601,601,595,599,601,602,600,605,600,601,604,604,604,605,605,605,610,609
11229,0.00341796875,-0.0426025390625,0.9990234375,1.89208984375,2.13623046875,2.685546875,652,637,619,602,590,576,568,554,548,538,532,523,516,520,512,507,504,497,496,492,491,489,488,485,482,483,479,476,478,475,474,473,473,471,472,472,472,470,470,480,479,474,476,472,473,474,479,477,473,473,495,511,532,543,556,563,569,578,579,583,586,588,593,593,595,598,596,600,600,599,602,596,595,593,595,592,593,593,595,590
11239,0.0052490234375,-0.04296875,0.995849609375,1.8310546875,1.953125,2.74658203125,650,633,617,598,591,580,568,557,546,541,535,526,522,515,515,519,514,511,506,501,501,497,500,495,493,488,490,487,483,486,481,481,476,477,478,476,472,474,472,469,477,476,473,473,469,470,469,468,470,472,472,494,511,527,537,548,556,563,567,568,571,572,575,578,575,575,575,575,577,579,577,585,584,585,588,599,595,595,592,591
11249,0.0069580078125,-0.043212890625,0.9896240234375,1.89208984375,1.89208984375,2.74658203125,647,627,615,597,584,571,560,550,541,528,524,515,509,504,499,491,498,491,486,483,481,479,475,473,474,470,469,467,463,462,461,461,456,457,457,454,455,456,456,454,455,455,462,460,460,460,460,459,458,460,462,481,513,537,551,561,573,576,605,640,658,675,667,668,661,656,655,651,652,647,647,646,645,641,639,638,636,631,627,626
11259,0.0457763671875,-0.014404296875,0.99169921875,0.42724609375,1.52587890625,-0.48828125,736,717,698,681,667,647,636,622,610,604,593,587,575,568,558,549,544,536,529,526,526,522,517,514,510,508,510,513,512,508,505,500,498,495,489,487,484,479,475,474,470,466,464,461,460,458,459,457,453,452,449,464,477,494,511,523,537,550,551,550,550,541,536,527,523,525,527,536,542,549,552,555,559,567,564,568,572,572,571,556
11269,-0.0106201171875,0.02294921875,1.0147705078125,-4.57763671875,2.3193359375,-22.39990234375,549,533,515,503,485,473,459,447,435,421,409,397,389,373,362,355,344,336,325,319,311,303,294,289,280,275,270,262,257,249,246,241,235,228,228,224,217,213,209,204,202,198,195,189,187,185,180,178,175,173,173,167,165,166,163,166,169,165,167,164,164,163,161,156,153,152,147,145,143,146,142,142,141,139,140,138,136,135,132,135
11279,-0.1046142578125,-0.08544921875,1.0234375,-8.4228515625,20.81298828125,-35.15625,187,182,178,173,170,168,165,163,162,159,156,152,151,150,145,147,142,142,140,137,137,131,134,128,129,127,126,123,122,119,118,119,119,115,116,115,115,114,114,113,114,109,111,109,109,107,108,105,106,107,106,105,105,101,105,106,119,121,121,122,119,118,119,118,117,124,126,127,128,127,126,127,125,126,124,125,123,121,123,125
11289,-0.0338134765625,0.04931640625,1.0152587890625,-14.16015625,34.1796875,-43.8232421875,218,216,210,207,201,197,192,189,187,181,178,176,174,170,170,164,163,158,157,154,151,150,147,145,143,142,140,136,136,136,131,130,127,127,126,126,122,121,122,119,120,119,116,114,117,115,112,111,112,111,110,108,110,112,110,111,118,116,117,117,116,116,115,116,115,115,113,112,112,111,109,109,108,105,106,104,106,103,101,101
11299,0.009765625,0.01025390625,0.9615478515625,-11.71875,34.72900390625,-49.37744140625,100,104,99,101,100,96,97,98,98,95,95,95,94,95,95,95,92,95,94,93,94,91,93,93,90,92,92,91,90,91,91,89,89,90,89,88,89,85,86,90,88,88,86,88,87,89,86,89,87,86,88,86,88,89,87,83,87,89,88,87,85,86,86,86,87,85,86,85,87,88,85,87,86,84,86,87,83,81,86,86
11308,0.023681640625,-0.035400390625,0.9190673828125,-7.9345703125,24.5361328125,-52.734375,84,85,87,83,85,82,85,84,85,82,85,87,85,83,85,86,85,87,83,85,85,85,83,87,87,88,86,86,84,84,86,86,83,84,85,84,83,83,86,83,83,84,86,83,85,86,86,86,84,85,82,85,86,86,84,84,88,84,86,85,86,85,83,84,85,85,84,83,86,85,85,86,85,85,85,84,84,85,85,86
11318,0.0137939453125,-0.03173828125,0.93505859375,-3.60107421875,8.4228515625,-52.79541015625,87,85,87,85,83,86,87,87,85,86,85,87,86,86,87,86,87,83,87,87,84,85,84,87,87,84,84,86,84,86,84,84,85,84,84,85,85,86,82,86,85,85,84,83,86,83,83,85,86,85,85,83,86,85,87,85,84,83,82,86,86,85,86,87,85,86,84,85,85,82,85,86,83,83,84,85,85,85,85,86
11328,-0.00146484375,-0.0386962890625,1.0357666015625,4.69970703125,2.25830078125,-52.8564453125,90,88,86,88,86,87,86,87,87,86,87,87,87,86,89,85,88,87,87,88,90,87,87,87,84,87,88,86,86,86,86,84,88,86,86,86,87,85,83,88,85,85,86,85,87,87,88,85,86,85,84,86,85,85,86,84,88,84,85,86,84,84,80,85,83,83,84,83,83,84,85,83,85,85,85,85,83,84,84,83
11338,-0.017578125,-0.0362548828125,1.01806640625,5.9814453125,5.2490234375,-67.138671875,88,85,86,85,87,86,85,84,87,85,86,84,88,85,86,88,85,86,85,87,88,85,86,87,84,86,87,85,88,86,85,83,86,84,86,85,88,88,87,87,86,87,86,85,84,84,86,86,85,88,85,88,85,85,86,88,87,87,85,83,85,87,88,88,87,89,88,90,89,94,96,97,100,108,112,116,122,122,119,118
11348,0.022705078125,-0.0439453125,1.004638671875,8.6669921875,15.31982421875,-72.69287109375,180,175,173,173,170,168,168,166,161,161,159,159,155,158,159,159,157,159,156,155,155,150,150,143,143,143,141,137,137,135,132,132,128,129,129,125,127,125,125,123,123,122,119,117,119,119,121,117,120,120,130,139,146,143,139,140,141,139,145,145,151,158,168,171,172,179,213,224,244,245,244,245,250,260,299,383,409,427,435,445
11358,0.06982421875,-0.0458984375,0.938720703125,13.7939453125,14.7705078125,-77.392578125,652,635,615,600,586,570,555,543,531,517,508,496,487,475,468,456,458,453,445,438,432,420,414,414,413,409,406,409,405,403,406,411,413,411,411,415,419,416,412,411,413,414,414,424,422,420,424,421,422,419,425,450,466,479,486,494,492,495,495,507,508,511,503,501,497,492,490,484,490,492,491,501,491,481,480,492,495,486,473,458
11368,0.0616455078125,-0.0086669921875,0.9207763671875,21.728515625,1.64794921875,-85.3271484375,634,621,602,596,583,570,561,550,539,534,529,522,520,518,511,510,505,500,495,499,502,503,501,508,510,507,509,532,531,527,525,515,511,506,504,495,495,490,492,500,501,505,507,509,514,517,517,517,522,520,542,563,568,576,575,569,569,560,559,553,560,569,578,588,583,578,583,586,619,625,614,617,620,639,657,668,676,666,665,671
11378,0.0989990234375,0.0904541015625,0.9244384765625,31.31103515625,-17.76123046875,-95.703125,636,615,595,579,561,547,532,518,509,501,491,475,469,459,450,437,431,421,411,402,395,381,374,365,355,347,335,331,322,315,307,314,315,310,305,305,299,294,296,295,288,284,276,270,268,262,257,253,252,245,245,247,263,276,278,276,272,268,285,300,325,354,359,393,406,425,440,443,440,431,426,429,428,430,427,428,440,434,411,402
11387,0.1121826171875,-0.1968994140625,0.9647216796875,32.28759765625,-49.31640625,-113.70849609375,523,510,500,488,478,466,456,442,430,427,441,452,452,451,461,467,475,482,494,494,493,492,495,495,492,496,492,489,490,489,489,491,491,489,487,482,481,479,480,479,479,473,469,465,458,449,440,434,432,431,436,455,457,446,433,431,425,409,399,386,368,356,357,359,340,328,315,305,295,287,280,275,269,261,259,257,255,251,251,256
11397,-0.093505859375,-0.340576171875,1.2354736328125,22.3388671875,-69.4580078125,-107.2998046875,468,461,450,441,435,426,417,408,403,403,413,403,396,385,404,403,395,394,394,396,404,428,423,421,419,441,453,456,450,445,442,444,437,431,422,420,414,408,416,419,422,416,425,447,437,429,419,415,408,401,396,400,395,403,402,398,394,386,381,388,386,379,375,370,377,369,363,357,352,349,346,343,338,339,338,334,333,328,325,322
11407,-0.1624755859375,-0.167236328125,0.8758544921875,28.9306640625,24.23095703125,-28.80859375,437,423,411,402,388,381,373,363,355,345,338,334,321,320,310,307,299,297,294,293,298,302,295,299,297,299,292,287,279,275,270,264,264,256,255,249,249,244,238,235,243,251,255,269,270,267,264,260,256,255,255,257,251,247,252,255,260,265,277,276,274,276,276,298,307,320,329,353,356,357,348,341,337,337,359,382,399,387,378,372
11417,0.038818359375,0.0198974609375,1.015380859375,13.73291015625,34.912109375,-19.10400390625,617,600,581,565,549,531,520,502,494,481,478,469,465,457,449,445,442,432,437,448,469,490,497,507,502,502,499,498,499,496,488,479,488,498,485,476,464,455,443,439,449,465,501,525,549,562,580,572,571,567,569,596,633,648,659,676,675,672,672,665,664,669,661,652,652,650,644,639,628,622,610,601,593,588,587,585,581,583,581,584
11427,0.1524658203125,-0.034423828125,0.917724609375,3.41796875,35.82763671875,-13.12255859375,771,745,724,697,681,659,639,622,607,587,581,566,550,541,533,525,517,507,496,495,480,485,487,489,494,497,504,494,489,481,473,465,457,457,454,450,450,444,438,435,432,429,425,422,419,415,408,405,412,415,414,452,454,460,470,472,474,479,478,472,470,492,505,511,528,541,529,523,514,505,495,485,490,493,505,525,550,542,532,536
11437,0.11669921875,-0.0611572265625,0.9090576171875,-1.708984375,11.90185546875,-5.43212890625,679,660,641,620,606,588,570,557,543,527,517,508,495,487,479,476,472,462,457,447,441,433,429,421,414,427,425,419,412,402,399,396,393,382,382,387,383,379,373,369,360,357,352,347,347,345,343,345,347,339,341,362,371,389,402,414,424,441,457,464,467,459,467,476,471,465,457,451,448,448,446,447,445,443,444,434,435,436,429,428
11447,-0.035400390625,-0.0255126953125,0.9912109375,-10.92529296875,-20.1416015625,-1.3427734375,616,596,582,567,555,539,531,519,508,492,483,473,463,452,439,434,424,412,411,404,400,403,414,418,411,412,415,410,404,399,392,382,381,376,376,375,370,368,368,380,379,380,387,410,410,414,416,406,405,403,405,409,425,437,447,444,435,436,444,448,447,451,461,462,459,476,481,521,548,542,539,539,530,529,530,522,514,534,524,518
11457,-0.0869140625,-0.017822265625,1.056884765625,-21.78955078125,-32.2265625,0.30517578125,678,657,637,616,597,582,562,545,526,513,498,484,469,460,449,437,426,414,404,395,385,373,366,361,357,350,348,343,339,340,344,338,338,332,330,327,326,326,324,331,327,323,329,324,319,313,314,309,308,302,305,347,369,407,416,413,419,413,415,411,408,410,419,445,467,463,464,468,482,510,509,503,508,525,520,535,539,550,568,555
11467,-0.0635986328125,0.003662109375,1.0084228515625,-30.029296875,-11.8408203125,-1.03759765625,644,624,606,588,579,567,556,543,531,518,503,489,479,470,454,441,437,430,417,411,406,405,404,413,436,465,484,500,511,520,528,531,532,528,518,524,512,527,523,512,502,488,476,470,457,448,437,427,412,407,401,405,407,406,396,400,405,434,448,443,433,429,420,410,407,409,477,471,461,474,487,482,476,464,449,438,432,423,420,415
11476,0.050048828125,-0.0972900390625,1.0045166015625,-18.6767578125,-4.94384765625,-0.8544921875,764,737,713,689,663,639,620,600,580,560,542,528,511,497,481,468,454,447,464,493,498,488,474,464,448,436,422,415,407,395,385,373,364,356,343,342,336,325,317,308,302,294,286,280,272,268,259,256,249,244,239,233,228,224,219,216,212,209,203,202,197,194,194,192,190,187,185,183,178,173,171,169,165,165,184,186,214,208,206,202
11486,0.040283203125,-0.0330810546875,1.025390625,-14.58740234375,-4.2724609375,0.42724609375,197,192,190,185,181,177,171,171,167,166,161,161,157,152,153,147,147,144,140,140,139,135,134,132,132,128,126,126,123,120,120,120,117,118,116,113,114,113,109,111,110,110,109,108,106,103,105,99,105,105,100,102,101,101,98,98,98,97,97,96,96,93,95,94,95,94,91,93,93,93,91,92,92,92,91,90,91,90,91,89
11496,0.0047607421875,0.0107421875,0.9652099609375,-7.50732421875,-5.859375,1.708984375,89,87,88,88,88,90,88,89,87,87,88,90,88,89,87,88,88,88,88,88,89,86,87,87,87,86,88,87,88,86,86,87,87,89,87,85,87,88,86,85,88,86,85,85,84,85,84,86,86,86,85,85,85,86,87,85,85,87,84,84,85,85,84,84,85,86,86,85,87,83,86,83,83,86,83,87,83,84,84,86
11506,-0.025390625,-0.07470703125,1.0020751953125,1.8310546875,-5.92041015625,5.18798828125,83,86,85,82,86,84,82,85,83,85,83,84,81,85,84,84,82,85,84,85,87,86,83,84,84,85,86,82,85,82,84,83,85,85,85,85,84,84,83,87,84,83,84,83,87,84,85,84,83,84,84,83,84,85,85,84,84,85,83,85,86,83,87,85,85,84,85,84,85,86,85,85,87,85,85,86,84,84,84,83
11516,-0.0079345703125,-0.0819091796875,0.983154296875,2.50244140625,-0.42724609375,7.8125,87,82,87,86,83,84,83,84,86,84,84,85,87,83,86,84,84,85,88,85,86,86,81,85,85,84,83,86,84,86,84,82,86,84,87,85,83,85,85,85,84,83,88,85,85,84,84,83,84,88,85,84,85,85,85,84,86,83,87,83,84,81,85,87,86,85,85,85,86,85,84,86,86,83,83,84,86,85,83,85
11526,-0.0130615234375,-0.0711669921875,0.9893798828125,4.638671875,2.50244140625,4.69970703125,86,84,81,83,84,85,82,81,85,86,85,83,85,84,84,82,87,82,83,83,83,84,86,85,85,87,84,84,83,84,85,85,86,85,83,84,86,84,85,83,85,85,86,85,86,84,85,85,86,86,85,84,83,85,83,85,83,83,88,85,85,85,85,86,85,85,83,86,84,84,85,85,87,83,83,84,86,83,87,86
11536,-0.0469970703125,-0.072021484375,1.008056640625,9.6435546875,5.7373046875,-1.46484375,85,83,85,84,86,88,86,86,85,85,86,85,84,86,85,87,86,86,87,85,85,86,83,86,85,85,86,85,84,84,87,85,86,85,83,83,85,85,84,85,83,85,85,86,83,84,85,84,85,83,83,84,85,85,90,117,122,157,227,279,326,345,343,337,328,325,317,310,302,290,284,295,297,292,284,275,271,262,256,254
11546,-0.1038818359375,-0.0743408203125,1.0078125,11.90185546875,6.8359375,-5.4931640625,313,309,307,301,299,294,291,285,281,285,291,290,289,286,283,290,289,289,281,275,269,264,258,258,256,253,250,249,248,249,243,239,238,241,247,247,248,246,253,257,263,270,266,258,254,247,240,234,233,225,224,217,225,223,222,231,243,246,250,248,253,272,287,314,310,316,351,364,367,362,360,368,364,369,371,366,374,374,374,377
11555,-0.084228515625,-0.0250244140625,1.0198974609375,15.9912109375,9.521484375,-4.69970703125,539,526,511,500,496,490,484,473,462,450,438,435,442,444,432,421,412,410,404,411,403,395,388,383,373,365,359,353,348,338,332,333,335,331,334,331,328,325,316,319,316,317,329,345,340,340,343,338,338,332,337,357,368,383,386,389,395,388,386,399,389,380,379,367,358,351,342,335,331,327,322,321,316,324,333,332,328,332,343,344
11565,-0.02783203125,-0.00537109375,1.0369873046875,24.658203125,12.75634765625,-2.86865234375,508,499,488,477,468,458,448,447,436,428,422,410,408,406,410,416,408,409,402,397,390,383,377,391,399,398,394,386,380,372,377,376,374,371,368,365,361,364,366,362,361,357,355,358,361,359,356,351,340,333,333,344,375,389,385,390,385,398,430,427,428,426,453,448,448,445,450,453,470,513,505,514,502,493,489,477,480,477,473,479
11575,0.0372314453125,-0.0330810546875,1.1063232421875,35.7666015625,18.12744140625,-2.9296875,554,536,519,504,489,474,461,448,436,424,415,404,393,385,374,368,356,351,344,336,333,330,327,322,319,318,324,326,322,322,319,319,328,325,325,321,316,317,313,324,320,322,324,321,358,359,358,352,349,350,362,381,390,407,415,429,434,431,432,439,440,453,462,477,488,505,511,526,536,547,545,550,562,554,553,553,567,563,567,559
11585,0.0404052734375,-0.0906982421875,1.100830078125,46.630859375,26.7333984375,0.30517578125,694,672,664,643,624,604,590,573,557,546,538,530,523,512,503,504,499,495,487,479,470,467,461,459,452,447,438,428,427,421,424,413,412,404,401,399,394,385,378,374,376,393,401,409,415,421,426,442,445,447,450,446,440,441,443,446,454,456,484,483,474,466,454,460,457,458,451,444,442,442,442,445,447,449,452,459,454,459,456,450
11595,0.00341796875,-0.0889892578125,1.0496826171875,75.37841796875,46.2646484375,4.94384765625,473,459,447,434,417,407,394,380,374,363,352,341,331,324,313,307,297,292,283,276,268,264,253,251,244,237,232,226,223,217,214,209,204,201,195,191,187,186,181,178,174,170,167,165,162,158,157,153,152,147,148,143,140,141,141,134,134,133,132,129,128,126,125,123,123,122,118,119,115,116,116,114,114,112,110,109,108,107,106,105
11605,0.0389404296875,-0.1190185546875,0.996826171875,97.96142578125,50.10986328125,9.21630859375,105,103,104,103,102,99,102,98,99,99,100,96,99,95,98,93,94,94,95,92,94,94,92,94,93,91,92,93,92,91,91,90,88,90,90,90,88,90,90,90,88,88,89,90,90,86,88,88,89,87,89,87,89,86,88,86,89,88,88,88,88,87,88,88,86,86,84,86,87,86,85,84,85,86,85,85,88,83,86,84
11615,0.0087890625,-0.184814453125,1.1715087890625,113.76953125,50.10986328125,12.0849609375,85,88,87,84,88,86,83,87,86,85,87,84,86,87,86,87,86,86,86,87,84,87,87,85,86,86,85,86,86,85,83,85,85,83,84,87,86,83,84,83,86,85,85,85,86,86,85,83,84,86,86,86,85,88,83,84,84,83,85,85,83,86,85,83,84,85,85,86,83,86,83,84,86,85,83,87,86,84,85,86
11625,0.064208984375,-0.3162841796875,1.328125,120.42236328125,56.0302734375,10.31494140625,83,83,84,85,84,83,85,85,84,83,82,85,85,84,84,84,81,82,86,86,85,82,83,82,84,83,85,84,83,85,85,85,85,84,82,84,84,84,84,85,85,86,84,85,85,84,82,82,85,85,84,84,85,84,84,83,83,83,85,85,86,84,82,86,84,84,87,85,84,85,83,84,85,85,84,86,82,86,86,85
11635,-0.0064697265625,-0.30859375,1.5072021484375,106.201171875,50.84228515625,7.62939453125,85,83,85,85,86,86,86,84,83,86,85,87,85,83,85,85,85,84,84,84,83,84,84,86,86,83,85,86,84,84,86,85,85,86,82,86,83,86,86,87,83,84,85,86,84,85,86,85,84,82,85,84,83,83,86,84,86,83,86,85,84,84,85,83,85,83,83,87,84,87,86,82,85,85,83,83,83,83,86,84
11644,-0.0135498046875,-0.3526611328125,1.6226806640625,80.078125,51.025390625,9.21630859375,84,83,84,81,84,84,83,85,83,84,84,85,84,84,81,85,85,84,85,83,82,84,84,83,85,86,86,83,83,86,85,86,83,85,85,85,82,82,84,83,86,85,85,83,83,85,83,85,86,84,86,82,84,83,85,84,82,86,83,85,83,86,84,83,85,84,86,84,83,84,84,86,83,85,84,85,83,86,85,86
11654,0.04541015625,-0.3465576171875,1.6995849609375,50.4150390625,93.26171875,7.080078125,83,84,85,85,83,85,83,85,83,85,86,82,85,82,82,84,85,83,83,84,84,84,83,85,86,83,85,86,86,86,83,86,85,86,84,82,86,85,86,84,86,83,85,85,85,85,83,84,86,85,86,85,84,84,85,85,84,85,85,86,86,84,85,86,85,84,84,84,84,85,85,84,82,84,86,85,85,84,85,84
11664,0.157958984375,-0.389404296875,1.68115234375,12.6953125,86.0595703125,10.92529296875,84,86,80,86,84,84,85,82,83,86,84,84,82,84,84,84,85,85,84,84,82,85,85,85,85,83,85,85,85,86,82,84,84,83,85,86,83,83,85,84,84,84,85,86,82,84,83,85,82,81,85,83,83,83,86,84,85,84,85,81,85,84,84,85,84,86,85,83,85,82,82,85,85,84,83,83,84,85,83,86
11674,0.072509765625,-0.41162109375,1.7127685546875,-10.009765625,68.115234375,13.61083984375,85,84,82,83,85,80,86,85,83,85,84,85,85,85,85,86,84,83,85,83,83,85,85,83,85,83,81,82,85,83,85,83,83,83,85,85,84,84,85,82,83,86,84,85,84,83,84,81,86,84,84,82,85,85,85,84,86,86,85,85,84,85,86,85,85,84,84,82,82,84,86,84,85,85,84,85,84,84,84,85
11684,-0.04833984375,-0.4554443359375,1.7314453125,-37.109375,49.01123046875,17.578125,82,86,83,84,84,84,83,82,83,82,84,82,86,82,83,84,79,85,83,85,84,85,82,85,82,85,84,86,83,83,83,84,85,84,85,86,85,85,85,86,86,86,85,83,84,85,83,85,84,82,81,84,85,84,85,85,83,85,83,85,85,85,86,84,86,84,81,84,85,85,84,85,86,85,83,87,85,84,84,84
11694,-0.135498046875,-0.50634765625,1.7601318359375,-58.59375,39.97802734375,18.5546875,83,84,82,86,84,82,85,84,85,85,86,83,86,84,84,83,86,84,84,84,83,84,83,85,81,85,86,84,81,86,85,83,81,84,84,83,86,85,82,84,85,85,83,85,84,82,84,84,85,85,85,84,85,82,85,86,84,83,85,86,84,84,85,84,84,84,85,84,83,86,81,84,84,87,85,84,84,84,85,83
11704,-0.3043212890625,-0.511962890625,1.761962890625,-72.6318359375,36.56005859375,19.59228515625,83,85,84,85,85,86,79,85,85,83,83,83,85,85,84,84,85,86,83,84,86,85,82,85,85,83,85,82,85,83,85,82,84,84,80,82,85,85,84,83,85,83,85,85,85,83,83,85,84,85,84,83,85,86,84,83,82,85,83,84,85,82,86,86,85,86,84,86,83,82,81,83,83,85,87,84,84,84,85,87
11714,-0.4864501953125,-0.466552734375,1.7432861328125,-80.50537109375,39.1845703125,22.5830078125,84,83,84,85,83,83,83,84,83,81,85,84,83,86,84,84,82,84,85,85,83,85,85,82,84,84,86,85,84,82,85,85,84,83,85,85,83,86,84,83,86,84,83,86,84,84,83,84,84,84,86,84,84,82,85,83,85,84,84,83,84,86,84,83,82,83,84,83,84,84,84,84,85,85,84,83,82,86,83,83
11723,-0.6021728515625,-0.42333984375,1.7108154296875,-65.97900390625,51.57470703125,15.44189453125,81,84,79,84,83,84,83,84,82,84,83,85,85,84,84,84,84,84,84,83,84,83,87,85,84,83,83,85,84,83,83,85,83,83,83,82,85,84,84,83,83,84,85,84,84,86,83,85,83,87,83,84,83,82,84,85,83,84,84,83,84,85,85,84,85,85,85,86,83,86,83,87,85,84,84,83,84,85,84,83
11733,-0.7474365234375,-0.511962890625,1.7664794921875,-52.18505859375,51.26953125,7.99560546875,85,81,85,84,82,84,82,84,84,85,85,84,81,82,86,84,85,84,82,84,84,85,83,84,86,86,84,84,83,84,85,86,85,82,85,84,84,82,83,85,82,83,85,85,86,84,82,84,83,82,84,83,84,83,84,86,85,86,83,84,86,84,85,83,85,85,85,84,82,82,85,83,83,83,85,85,85,86,85,83
11743,-0.7064208984375,-0.625244140625,1.7659912109375,-42.236328125,51.81884765625,-3.2958984375,85,84,86,85,83,84,80,85,83,85,83,86,83,86,83,85,83,86,84,85,84,84,81,85,86,84,83,85,84,83,85,85,85,84,80,85,83,85,84,84,84,86,85,85,83,83,85,87,87,85,83,85,86,85,83,84,85,85,85,84,84,85,85,85,83,87,84,84,86,84,82,83,86,83,82,85,86,85,85,85
11753,-0.519287109375,-0.5914306640625,1.63427734375,-57.861328125,45.59326171875,-16.66259765625,84,83,84,83,83,84,84,82,84,82,83,84,86,85,82,84,83,84,84,82,84,84,84,84,84,82,83,84,85,84,83,84,83,86,86,84,85,85,82,85,85,84,87,82,83,85,84,85,83,83,83,85,85,85,85,82,83,85,83,85,86,84,86,84,85,82,85,82,84,85,84,86,85,86,83,84,85,84,85,84
11763,-0.2679443359375,-0.4588623046875,1.439697265625,-93.6279296875,40.8935546875,-24.90234375,86,83,85,81,85,83,85,83,85,84,85,82,84,85,83,86,86,85,85,86,83,85,85,86,84,81,84,84,81,84,84,85,85,82,84,83,82,85,84,85,83,84,84,85,85,85,85,85,84,85,86,83,84,83,85,84,85,84,84,83,84,84,85,83,86,85,85,82,85,83,84,85,84,84,83,83,83,85,82,85
11773,-0.14599609375,-0.4637451171875,1.265625,-128.23486328125,51.45263671875,-24.2919921875,81,84,85,84,84,84,83,84,85,83,84,83,85,81,84,83,85,84,84,85,85,83,83,84,83,83,85,84,86,83,81,84,86,83,85,84,86,84,85,83,86,86,84,85,83,82,86,84,86,83,85,83,85,86,85,84,86,84,85,84,84,82,84,86,84,86,83,83,83,86,84,83,86,83,86,85,86,85,82,84
11783,-0.270263671875,-0.3974609375,1.2076416015625,-149.71923828125,72.75390625,-4.39453125,84,86,85,86,84,85,84,82,84,84,83,86,82,86,85,85,85,85,83,81,84,84,85,83,86,84,85,85,82,83,86,83,86,84,82,85,84,85,85,84,83,83,86,85,84,83,84,86,85,85,84,85,85,85,87,85,84,85,84,85,86,84,85,85,84,85,85,83,83,86,85,86,84,85,86,85,83,84,82,85
11793,-0.526611328125,-0.536376953125,1.3551025390625,-138.48876953125,89.78271484375,-0.9765625,83,85,85,86,86,83,86,84,84,82,84,85,82,84,83,84,83,83,81,86,85,84,83,82,86,84,83,84,85,83,86,84,84,84,86,83,84,82,85,84,83,84,85,84,85,84,86,85,84,86,83,82,81,85,84,85,84,83,85,86,85,86,84,86,85,83,85,86,85,85,84,85,85,86,84,84,85,85,84,85
11803,-0.5709228515625,-0.610107421875,1.4293212890625,-138.3056640625,101.6845703125,-2.8076171875,82,85,85,84,82,84,84,84,86,84,85,83,85,84,84,84,82,84,83,82,85,85,83,82,86,85,84,83,85,83,82,84,85,83,84,84,85,85,84,81,84,85,83,84,84,83,84,83,83,85,84,84,84,85,86,84,82,83,83,84,85,84,86,84,82,84,84,85,82,83,84,84,84,85,85,85,87,84,85,84
11812,-0.524169921875,-0.60009765625,1.34423828125,-154.72412109375,115.1123046875,-6.4697265625,84,83,85,85,83,84,86,85,86,87,84,85,83,84,81,84,83,83,84,85,82,85,84,87,83,85,84,84,85,85,85,83,85,84,85,82,83,86,85,83,83,83,84,83,83,85,83,87,82,85,85,83,83,83,82,83,85,83,86,85,85,86,85,84,83,84,85,85,85,84,81,83,84,84,84,84,85,85,86,84
